time,seconds_elapsed,z,y,x
1757088397043948000,0.098947998046875,2.7823123931884766,-4.778675079345703,2.283050060272217
1757088397063054300,0.118054443359375,3.2207999229431152,-4.457337379455566,2.557912588119507
1757088397072607500,0.127607421875,3.268512487411499,-4.302237510681152,2.6336750984191895
1757088397082160400,0.137160400390625,3.339324951171875,-4.14947509765625,2.6092000007629395
1757088397091713500,0.146713623046875,3.3552749156951904,-4.002900123596191,2.5811500549316406
1757088397101266400,0.156266357421875,3.3295624256134033,-3.5667500495910645,2.640962600708008
1757088397110819800,0.16581982421875,3.338087558746338,-3.20636248588562,2.6483874320983887
1757088397120373000,0.175373046875,3.347987413406372,-2.888737440109253,2.615387439727783
1757088397129926000,0.18492578125,3.363800048828125,-2.5271124839782715,2.681387424468994
1757088397139479000,0.19447900390625,3.3797500133514404,-2.528212547302246,2.842674970626831
1757088397149032000,0.204031982421875,3.416325092315674,-2.8593125343322754,3.0955374240875244
1757088397158585000,0.213585205078125,3.5055625438690186,-3.2381250858306885,3.3948750495910645
1757088397168138200,0.22313818359375,3.5629000663757324,-3.5545125007629395,3.6745500564575195
1757088397177691400,0.23269140625,3.595900058746338,-3.699850082397461,3.925075054168701
1757088397187244500,0.24224462890625,3.638662576675415,-3.69751238822937,4.114412307739258
1757088397196797400,0.25179736328125,3.6606624126434326,-3.550800085067749,4.251224994659424
1757088397215903700,0.27090380859375,3.610612392425537,-2.7469749450683594,4.114412307739258
1757088397225457000,0.280456787109375,3.4933249950408936,-2.3291125297546387,3.9078874588012695
1757088397235010000,0.290010009765625,3.3259875774383545,-1.6999125480651855,3.65378737449646
1757088397244563200,0.299563232421875,3.120699882507324,-1.3737624883651733,3.323925018310547
1757088397254116000,0.3091162109375,2.8421249389648438,-1.1331374645233154,3.0662500858306885
1757088397263669000,0.3186689453125,2.5403125286102295,-0.8630874752998352,2.8914875984191895
1757088397273222400,0.328222412109375,2.1763498783111572,-0.5784624814987183,2.726487398147583
1757088397282775600,0.337775634765625,1.7487249374389648,-0.2864125072956085,2.506624937057495
1757088397292328400,0.347328369140625,1.3173874616622925,-0.1251250058412552,2.2085249423980713
1757088397301881600,0.356881591796875,0.9509499669075012,0.027499999850988388,1.8823750019073486
1757088397311434500,0.3664345703125,0.7090874910354614,0.1839749962091446,1.6770875453948975
1757088397320988000,0.37598779296875,0.5478000044822693,0.28049999475479126,1.5952750444412231
1757088397330541000,0.385541015625,0.4390375018119812,0.24873749911785126,1.5805624723434448
1757088397340094000,0.395093994140625,0.39256250858306885,0.2059749960899353,1.4792250394821167
1757088397349647000,0.404647216796875,0.4622749984264374,0.30607500672340393,1.2531750202178955
1757088397359200000,0.414199951171875,0.6430875062942505,0.46131250262260437,0.6837875247001648
1757088397368753200,0.423753173828125,0.7688999772071838,1.2406624555587769,-1.1609125137329102
1757088397378306300,0.433306396484375,1.0034749507904053,1.5387624502182007,-1.965975046157837
1757088397397412600,0.45241259765625,0.9754250049591064,-0.557699978351593,-0.7284749746322632
1757088397406965800,0.4619658203125,0.7933750152587891,-1.5338125228881836,-0.15056249499320984
1757088397416519000,0.471518798828125,1.079237461090088,-1.7476249933242798,-0.0919874981045723
1757088397426071800,0.48107177734375,1.1562374830245972,-1.4225749969482422,-0.19827499985694885
1757088397435625000,0.490625,1.091475009918213,-1.1024750471115112,-0.22756250202655792
1757088397445177900,0.500177734375,1.079237461090088,-0.9498500227928162,-0.013749999925494194
1757088397454731000,0.50973095703125,1.0352375507354736,-0.6565625071525574,0.24034999310970306
1757088397464284400,0.519284423828125,1.0657625198364258,-0.4404124915599823,0.19030000269412994
1757088397473837300,0.52883740234375,1.1024750471115112,-0.08855000138282776,0.1658249944448471
1757088397483390500,0.538390380859375,1.1024750471115112,0.14354999363422394,-0.07232499867677689
1757088397492943400,0.547943359375,0.9789999723434448,0.14973749220371246,-0.23237499594688416
1757088397502496500,0.55749658203125,0.942425012588501,-0.05926249921321869,-0.2250874936580658
1757088397512049700,0.567049560546875,0.867900013923645,-0.3792249858379364,-0.17503750324249268
1757088397521602800,0.576602783203125,0.7176125049591064,-0.5234624743461609,-0.25561249256134033
1757088397531156000,0.586156005859375,0.5306124687194824,-0.518512487411499,-0.383899986743927
1757088397540708900,0.595708984375,0.3657499849796295,-0.2681249976158142,-0.519474983215332
1757088397550262000,0.605261962890625,0.2619374990463257,0.03492499887943268,-0.5769500136375427
1757088397559815200,0.614815185546875,0.1494625061750412,0.6701750159263611,-0.658762514591217
1757088397569368300,0.624368408203125,0.16417500376701355,1.2504249811172485,-0.8347625136375427
1757088397578921200,0.633921142578125,0.31679999828338623,1.4924249649047852,-0.916575014591217
1757088397588474600,0.643474609375,0.33274999260902405,1.8466249704360962,-0.6564249992370605
1757088397598027500,0.653027587890625,0.3205125033855438,1.4727624654769897,-0.5964750051498413
1757088397607580700,0.66258056640625,0.5820375084877014,0.7214624881744385,-0.706475019454956
1757088397617133800,0.6721337890625,1.104812502861023,0.17531250417232513,-0.9288125038146973
1757088397626686700,0.681686767578125,1.812250018119812,-0.7042750120162964,-1.4174875020980835
1757088397636240000,0.691239990234375,2.4964499473571777,-1.5167624950408936,-2.044212579727173
1757088397645793000,0.70079296875,3.065700054168701,-2.441587448120117,-2.576887369155884
1757088397655346200,0.71034619140625,3.4383249282836914,-3.305224895477295,-2.6941750049591064
1757088397664899300,0.7198994140625,3.775475025177002,-3.85756254196167,-2.29583740234375
1757088397674452200,0.7294521484375,3.9294750690460205,-2.9913125038146973,-1.6765375137329102
1757088397684005400,0.73900537109375,3.1952250003814697,1.7648124694824219,-0.6026625037193298
1757088397693558500,0.74855859375,2.377924919128418,5.043912410736084,0.18906250596046448
1757088397703111700,0.758111572265625,2.1298749446868896,5.383537292480469,0.1340624988079071
1757088397712664600,0.76766455078125,2.038300037384033,4.330424785614014,-0.2410375028848648
1757088397722217700,0.7772177734375,1.9014874696731567,2.609062433242798,-0.7027624845504761
1757088397731771000,0.78677099609375,1.716962456703186,0.5956500172615051,-0.9361000061035156
1757088397741324000,0.796323974609375,1.616724967956543,-1.1441375017166138,-0.6697624921798706
1757088397750877200,0.805877197265625,1.6436749696731567,-2.236299991607666,0.05829999968409538
1757088397760430000,0.81543017578125,1.7511999607086182,-2.5796375274658203,0.8340749740600586
1757088397769983000,0.82498291015625,1.9758750200271606,-2.2325875759124756,1.3289375305175781
1757088397779536400,0.834536376953125,2.2532124519348145,-1.375,1.5512750148773193
1757088397789089500,0.844089599609375,2.4219250679016113,-0.3634124994277954,1.623324990272522
1757088397798642400,0.853642333984375,2.6320250034332275,0.23883749544620514,1.6025625467300415
1757088397808195600,0.863195556640625,2.8115999698638916,-0.10436250269412994,1.4082750082015991
1757088397817748700,0.872748779296875,2.8238375186920166,-1.0133750438690186,1.0296000242233276
1757088397827302000,0.882302001953125,3.4676125049591064,-2.0004875659942627,0.6716874837875366
1757088397836854800,0.891854736328125,4.649012565612793,-2.1055374145507812,0.1060125008225441
1757088397846408000,0.901407958984375,5.593362331390381,-2.5796375274658203,-0.050462499260902405
1757088397855961000,0.910961181640625,5.918412685394287,-3.521512508392334,0.07672499865293503
1757088397865514200,0.92051416015625,5.529837608337402,-4.292474746704102,-0.007699999958276749
1757088397875067400,0.9300673828125,4.7125372886657715,-3.7695624828338623,-0.142037495970726
1757088397884620300,0.939620361328125,2.8103625774383545,-2.4011623859405518,-0.7919999957084656
1757088397894173400,0.94917333984375,0.10793749988079071,-1.4079999923706055,-1.4431999921798706
1757088397903726600,0.9587265625,-1.8467625379562378,-1.8159624338150024,-1.1474374532699585
1757088397913279700,0.96827978515625,-2.287862539291382,-2.050537586212158,-0.570900022983551
1757088397922832600,0.97783251953125,-1.9372375011444092,-1.7879124879837036,-0.028462499380111694
1757088397932385800,0.9873857421875,-1.3105125427246094,-1.1221375465393066,0.4236375093460083
1757088397941939000,0.99693896484375,-0.6763625144958496,-0.1825999915599823,0.6875
1757088397951492400,1.006492431640625,-0.21216249465942383,0.42336249351501465,0.5787374973297119
1757088397961045200,1.016045166015625,0.07136250287294388,0.3573625087738037,0.12925000488758087
1757088397970598100,1.02559814453125,0.2545124888420105,0.0752125009894371,-0.2727999985218048
1757088397980151300,1.0351513671875,0.415800005197525,-0.0518375001847744,-0.37908750772476196
1757088397989704700,1.04470458984375,0.5110874772071838,-0.04331250116229057,-0.27403751015663147
1757088397999257600,1.054257568359375,0.4450874924659729,0.07150000333786011,-0.11027500033378601
1757088398008810500,1.063810546875,0.2704625129699707,0.21683749556541443,0.013062499463558197
1757088398018363600,1.07336376953125,0.16775000095367432,0.342787504196167,0.07548750191926956
1757088398027916500,1.08291650390625,0.14093749225139618,0.3988874852657318,0.09501250088214874
1757088398037469700,1.0924697265625,0.10546249896287918,0.358599990606308,0.1023000031709671
1757088398047023000,1.102023193359375,0.07369999587535858,0.36355000734329224,0.08648750185966492
1757088398056576000,1.111575927734375,0.06393750011920929,0.40755000710487366,0.05953750014305115
1757088398066129200,1.121129150390625,0.03959999978542328,0.3891249895095825,0.05101250112056732
1757088398075682300,1.130682373046875,0.011412499472498894,0.29631251096725464,0.06572499871253967
1757088398085235500,1.1402353515625,-0.009349999949336052,0.1704999953508377,0.08030000329017639
1757088398094788600,1.14978857421875,-0.020349999889731407,0.05926249921321869,0.0742499977350235
1757088398104341500,1.159341552734375,-0.030112499371170998,-0.01759999990463257,0.05706249922513962
1757088398113894400,1.168894287109375,-0.04358749836683273,-0.058024998754262924,0.05348749831318855
1757088398123447800,1.17844775390625,-0.05335000157356262,-0.060362499207258224,0.0668250024318695
1757088398133000700,1.188000732421875,-0.06311249732971191,-0.04702499881386757,0.07906249910593033
1757088398142553900,1.197553955078125,-0.06063750013709068,-0.028599999845027924,0.06929999589920044
1757088398152107000,1.20710693359375,-0.05211250111460686,-0.016499999910593033,0.05101250112056732
1757088398161660000,1.216659912109375,-0.04358749836683273,0.0042624999769032,0.0424874983727932
1757088398171213300,1.22621337890625,-0.03492499887943268,0.04221250116825104,0.04729999974370003
1757088398180766200,1.23576611328125,-0.028875000774860382,0.09102500230073929,0.05582499876618385
1757088398190319400,1.2453193359375,-0.020349999889731407,0.12526249885559082,0.05953750014305115
1757088398199872300,1.254872314453125,-0.011824999935925007,0.1350249946117401,0.05953750014305115
1757088398209425700,1.26442578125,-0.006874999962747097,0.12044999748468399,0.06324999779462814
1757088398218978600,1.273978515625,0.0028874999843537807,0.10078749805688858,0.06324999779462814
1757088398228531700,1.28353173828125,0.007699999958276749,0.08373750001192093,0.06077500060200691
1757088398238084600,1.293084716796875,0.012649999931454659,0.07150000333786011,0.05953750014305115
1757088398247638000,1.302637939453125,0.012649999931454659,0.058024998754262924,0.05953750014305115
1757088398257191000,1.31219091796875,0.010174999944865704,0.05073750019073486,0.06201250106096268
1757088398266744000,1.321744140625,0.005362499970942736,0.04592499881982803,0.06324999779462814
1757088398276297200,1.331297119140625,0.0004124999977648258,0.04468749836087227,0.06324999779462814
1757088398285850000,1.34085009765625,-0.0031624999828636646,0.0494999997317791,0.06077500060200691
1757088398295403300,1.3504033203125,-0.006874999962747097,0.05321250110864639,0.05953750014305115
1757088398304956400,1.359956298828125,-0.008112499490380287,0.055687498301267624,0.05829999968409538
1757088398314509600,1.369509521484375,-0.008112499490380287,0.05692499876022339,0.05706249922513962
1757088398324062500,1.3790625,-0.004399999976158142,0.05692499876022339,0.05953750014305115
1757088398333615600,1.38861572265625,0.0004124999977648258,0.05321250110864639,0.05829999968409538
1757088398343168800,1.398168701171875,0.005362499970942736,0.0494999997317791,0.05348749831318855
1757088398352721700,1.4077216796875,0.010174999944865704,0.043449997901916504,0.04729999974370003
1757088398362274800,1.41727490234375,0.015124999918043613,0.03726249933242798,0.04853750020265579
1757088398371828000,1.426827880859375,0.018699999898672104,0.031212499365210533,0.04853750020265579
1757088398381381000,1.436381103515625,0.01993750035762787,0.021449999883770943,0.04977500066161156
1757088398390934000,1.44593408203125,0.018699999898672104,0.010449999943375587,0.05101250112056732
1757088398400487400,1.4554873046875,0.01759999990463257,0.0006874999962747097,0.05348749831318855
1757088398410040300,1.465040283203125,0.012649999931454659,-0.005499999970197678,0.05348749831318855
1757088398419593500,1.474593505859375,0.008937500417232513,-0.007837500423192978,0.04977500066161156
1757088398429146400,1.484146484375,0.005362499970942736,-0.006599999964237213,0.04372499883174896
1757088398438699500,1.493699462890625,0.0004124999977648258,-0.006599999964237213,0.0387750007212162
1757088398448252700,1.503252685546875,-0.0031624999828636646,-0.005499999970197678,0.03272499889135361
1757088398457805800,1.512805908203125,-0.0056374999694526196,-0.0017874999903142452,0.030249999836087227
1757088398467358700,1.522358642578125,-0.0056374999694526196,0.0031624999828636646,0.026537500321865082
1757088398476911900,1.531911865234375,-0.0031624999828636646,0.007974999956786633,0.01924999989569187
1757088398486465000,1.541465087890625,0.0016499999910593033,0.011687500402331352,0.013062499463558197
1757088398496018200,1.55101806640625,0.007699999958276749,0.015262499451637268,0.008249999955296516
1757088398505571300,1.5605712890625,0.008937500417232513,0.017737500369548798,0.008249999955296516
1757088398515124200,1.570124267578125,0.013887500390410423,0.023924998939037323,0.010724999941885471
1757088398524677400,1.579677490234375,0.012649999931454659,0.03849999979138374,0.015537500381469727
1757088398534230500,1.58923046875,0.012649999931454659,0.05692499876022339,0.020487500354647636
1757088398543783700,1.59878369140625,0.010174999944865704,0.06544999778270721,0.024062499403953552
1757088398553336600,1.608336669921875,0.007699999958276749,0.06421250104904175,0.026537500321865082
1757088398562889500,1.617889404296875,0.006599999964237213,0.048262499272823334,0.025299999862909317
1757088398572442600,1.627442626953125,0.007699999958276749,0.021449999883770943,0.027775000780820847
1757088398581996000,1.63699609375,0.007699999958276749,-0.0017874999903142452,0.027775000780820847
1757088398591549000,1.646548828125,0.007699999958276749,-0.007837500423192978,0.027775000780820847
1757088398601102000,1.65610205078125,0.006599999964237213,0.0042624999769032,0.029012499377131462
1757088398610655000,1.665655029296875,0.007699999958276749,0.025162499397993088,0.03148749843239784
1757088398620208000,1.6752080078125,0.007699999958276749,0.03973750025033951,0.029012499377131462
1757088398629761300,1.68476123046875,0.008937500417232513,0.04468749836087227,0.026537500321865082
1757088398639314400,1.694314453125,0.010174999944865704,0.04702499881386757,0.022962499409914017
1757088398648867300,1.703867431640625,0.012649999931454659,0.04702499881386757,0.018012499436736107
1757088398658420500,1.71342041015625,0.013887500390410423,0.043449997901916504,0.010724999941885471
1757088398667973600,1.7229736328125,0.015124999918043613,0.03973750025033951,0.0057749999687075615
1757088398677526800,1.73252685546875,0.012649999931454659,0.03368749842047691,0.004537499975413084
1757088398687079700,1.74207958984375,0.010174999944865704,0.026262499392032623,0.0057749999687075615
1757088398696632800,1.7516328125,0.007699999958276749,0.023924998939037323,0.007012499962002039
1757088398706185700,1.761185791015625,0.007699999958276749,0.021449999883770943,0.009487500414252281
1757088398715739100,1.7707392578125,0.005362499970942736,0.025162499397993088,0.008249999955296516
1757088398725292300,1.780292236328125,0.005362499970942736,0.028737500309944153,0.007012499962002039
1757088398734845200,1.78984521484375,0.005362499970942736,0.031212499365210533,0.0057749999687075615
1757088398744398300,1.7993984375,0.005362499970942736,0.026262499392032623,0.0057749999687075615
1757088398753951200,1.808951171875,0.004124999977648258,0.012924999929964542,0.0057749999687075615
1757088398763504600,1.818504638671875,0.004124999977648258,0.0019249999895691872,0.009487500414252281
1757088398773057500,1.8280576171875,0.004124999977648258,-0.012787500396370888,0.010724999941885471
1757088398782610700,1.837610595703125,0.0028874999843537807,-0.028599999845027924,0.011962499469518661
1757088398792163600,1.84716357421875,0.004124999977648258,-0.04207500070333481,0.011962499469518661
1757088398801717000,1.856717041015625,0.004124999977648258,-0.050599999725818634,0.011962499469518661
1757088398811270000,1.866269775390625,0.004124999977648258,-0.053075000643730164,0.011962499469518661
1757088398820823000,1.875822998046875,0.0028874999843537807,-0.053075000643730164,0.011962499469518661
1757088398830376000,1.8853759765625,0.004124999977648258,-0.053075000643730164,0.011962499469518661
1757088398839929000,1.89492919921875,0.0028874999843537807,-0.04936249926686287,0.013062499463558197
1757088398849482200,1.904482177734375,0.004124999977648258,-0.045787498354911804,0.014299999922513962
1757088398859035400,1.914035400390625,0.007699999958276749,-0.04207500070333481,0.015537500381469727
1757088398868588300,1.92358837890625,0.008937500417232513,-0.03231250122189522,0.018012499436736107
1757088398878141400,1.933141357421875,0.011412499472498894,-0.023787500336766243,0.018012499436736107
1757088398887694600,1.942694580078125,0.012649999931454659,-0.01759999990463257,0.018012499436736107
1757088398897247700,1.952247802734375,0.012649999931454659,-0.015262499451637268,0.01677500084042549
1757088398906800600,1.961800537109375,0.012649999931454659,-0.01759999990463257,0.01677500084042549
1757088398916353800,1.971353759765625,0.010174999944865704,-0.026262499392032623,0.01677500084042549
1757088398925906700,1.98090673828125,0.005362499970942736,-0.036024998873472214,0.018012499436736107
1757088398935459800,1.9904599609375,0.004124999977648258,-0.045787498354911804,0.01924999989569187
1757088398945013000,2.000012939453125,0.004124999977648258,-0.05431250110268593,0.021724998950958252
1757088398954566100,2.009566162109375,0.007699999958276749,-0.05926249921321869,0.022962499409914017
1757088398964119000,2.019119140625,0.010174999944865704,-0.06283749639987946,0.025299999862909317
1757088398973672200,2.028672119140625,0.015124999918043613,-0.060362499207258224,0.026537500321865082
1757088398983225300,2.038225341796875,0.01759999990463257,-0.0518375001847744,0.024062499403953552
1757088398992778500,2.047778564453125,0.018699999898672104,-0.04331250116229057,0.021724998950958252
1757088399002331400,2.057331298828125,0.01759999990463257,-0.03959999978542328,0.01924999989569187
1757088399011884500,2.066884521484375,0.013887500390410423,-0.03849999979138374,0.021724998950958252
1757088399021437400,2.0764375,0.011412499472498894,-0.03959999978542328,0.024062499403953552
1757088399030990600,2.085990478515625,0.007699999958276749,-0.040837500244379044,0.025299999862909317
1757088399040543700,2.095543701171875,0.005362499970942736,-0.04207500070333481,0.026537500321865082
1757088399050097000,2.105096923828125,0.004124999977648258,-0.045787498354911804,0.025299999862909317
1757088399059649800,2.11464990234375,0.005362499970942736,-0.05431250110268593,0.027775000780820847
1757088399069203000,2.124202880859375,0.007699999958276749,-0.06407500058412552,0.029012499377131462
1757088399078755800,2.133755859375,0.011412499472498894,-0.07507500052452087,0.030249999836087227
1757088399097862100,2.152862060546875,0.018699999898672104,-0.0873124971985817,0.03272499889135361
1757088399107415300,2.162415283203125,0.021175000816583633,-0.0873124971985817,0.03506249934434891
1757088399116968200,2.17196826171875,0.021175000816583633,-0.08002500236034393,0.03396249935030937
1757088399126521300,2.181521240234375,0.01759999990463257,-0.06902500241994858,0.03272499889135361
1757088399136074500,2.191074462890625,0.013887500390410423,-0.05678749829530716,0.030249999836087227
1757088399145627600,2.200627685546875,0.010174999944865704,-0.04702499881386757,0.026537500321865082
1757088399155180500,2.2101806640625,0.005362499970942736,-0.03849999979138374,0.024062499403953552
1757088399164733700,2.219733642578125,0.0004124999977648258,-0.031075000762939453,0.024062499403953552
1757088399174287000,2.229287109375,-0.0008249999955296516,-0.027499999850988388,0.022962499409914017
1757088399183840000,2.238840087890625,-0.002062499988824129,-0.027499999850988388,0.020487500354647636
1757088399193393000,2.248392822265625,-0.002062499988824129,-0.027499999850988388,0.015537500381469727
1757088399202946000,2.257946044921875,-0.002062499988824129,-0.02502499893307686,0.011962499469518661
1757088399212499000,2.2674990234375,0.0004124999977648258,-0.023787500336766243,0.008249999955296516
1757088399222052000,2.277052001953125,0.0004124999977648258,-0.02502499893307686,0.007012499962002039
1757088399231605500,2.28660546875,0.0004124999977648258,-0.027499999850988388,0.008249999955296516
1757088399241158400,2.296158447265625,-0.002062499988824129,-0.026262499392032623,0.008249999955296516
1757088399250711600,2.305711669921875,-0.0031624999828636646,-0.022549999877810478,0.009487500414252281
1757088399260264400,2.315264404296875,-0.0056374999694526196,-0.020075000822544098,0.010724999941885471
1757088399269817600,2.324817626953125,-0.0056374999694526196,-0.018837500363588333,0.009487500414252281
1757088399279370800,2.334370849609375,-0.006874999962747097,-0.014024999924004078,0.007012499962002039
1757088399288923600,2.343923583984375,-0.006874999962747097,-0.010312499478459358,0.007012499962002039
1757088399298476800,2.353476806640625,-0.008112499490380287,-0.0042624999769032,0.0032999999821186066
1757088399308030000,2.363030029296875,-0.008112499490380287,0.0019249999895691872,0.0032999999821186066
1757088399317583000,2.3725830078125,-0.008112499490380287,0.006737499963492155,0.002199999988079071
1757088399327136000,2.382135986328125,-0.008112499490380287,0.010449999943375587,0.004537499975413084
1757088399336689200,2.391689208984375,-0.0056374999694526196,0.006737499963492155,0.008249999955296516
1757088399346242000,2.401241943359375,-0.0031624999828636646,0.0019249999895691872,0.009487500414252281
1757088399355795200,2.410795166015625,0.0004124999977648258,0.0019249999895691872,0.010724999941885471
1757088399365348400,2.420348388671875,0.0016499999910593033,0.007974999956786633,0.009487500414252281
1757088399374901500,2.429901611328125,0.0016499999910593033,0.011687500402331352,0.009487500414252281
1757088399384454400,2.439454345703125,0.0028874999843537807,0.016499999910593033,0.0057749999687075615
1757088399394007600,2.449007568359375,0.004124999977648258,0.021449999883770943,0.0032999999821186066
1757088399403560700,2.458560791015625,0.004124999977648258,0.025162499397993088,-0.0002749999985098839
1757088399413113900,2.46811376953125,0.006599999964237213,0.026262499392032623,-0.0015124999918043613
1757088399422666800,2.477666748046875,0.004124999977648258,0.026262499392032623,-0.003987499978393316
1757088399432220000,2.487219970703125,0.004124999977648258,0.027499999850988388,-0.006462499964982271
1757088399441772800,2.496772705078125,0.0016499999910593033,0.022687500342726707,-0.008799999952316284
1757088399451326000,2.506325927734375,-0.002062499988824129,0.020212499424815178,-0.013749999925494194
1757088399460879000,2.515879150390625,-0.0056374999694526196,0.016499999910593033,-0.01979999989271164
1757088399470432300,2.525432373046875,-0.008112499490380287,0.022687500342726707,-0.02722499892115593
1757088399479985200,2.534985107421875,-0.010587500408291817,0.03244999796152115,-0.035750001668930054
1757088399489538300,2.544538330078125,-0.014162499457597733,0.043449997901916504,-0.04179999977350235
1757088399499091500,2.554091552734375,-0.016637500375509262,0.055687498301267624,-0.04427500069141388
1757088399508644600,2.56364453125,-0.016637500375509262,0.06668750196695328,-0.045512501150369644
1757088399518197500,2.573197509765625,-0.015399999916553497,0.07150000333786011,-0.047987498342990875
1757088399527750700,2.582750732421875,-0.014162499457597733,0.06778749823570251,-0.050462499260902405
1757088399537303800,2.5923037109375,-0.010587500408291817,0.06173750013113022,-0.056512501090765
1757088399546856700,2.601856689453125,-0.008112499490380287,0.05444999784231186,-0.06132499873638153
1757088399556409900,2.611409912109375,-0.008112499490380287,0.04702499881386757,-0.06627500057220459
1757088399565963000,2.620962890625,-0.006874999962747097,0.043449997901916504,-0.07122500240802765
1757088399575516000,2.630515869140625,-0.008112499490380287,0.04592499881982803,-0.07479999959468842
1757088399585069000,2.640069091796875,-0.009349999949336052,0.05444999784231186,-0.082225002348423
1757088399594622000,2.6496220703125,-0.014162499457597733,0.058024998754262924,-0.08703749626874924
1757088399604175400,2.65917529296875,-0.016637500375509262,0.055687498301267624,-0.08951249718666077
1757088399613728300,2.668728271484375,-0.017875000834465027,0.05197500064969063,-0.0919874981045723
1757088399623281200,2.67828125,-0.016637500375509262,0.0494999997317791,-0.0943249985575676
1757088399632834600,2.68783447265625,-0.010587500408291817,0.043449997901916504,-0.09927500039339066
1757088399642387500,2.697387451171875,-0.0031624999828636646,0.03726249933242798,-0.10298749804496765
1757088399651940600,2.706940673828125,0.0028874999843537807,0.03244999796152115,-0.10298749804496765
1757088399661493500,2.716493408203125,0.006599999964237213,0.029975000768899918,-0.09927500039339066
1757088399671046700,2.726046630859375,0.008937500417232513,0.027499999850988388,-0.09322500228881836
1757088399680599800,2.735599853515625,0.010174999944865704,0.022687500342726707,-0.0882750004529953
1757088399690153000,2.745153076171875,0.008937500417232513,0.018975000828504562,-0.08579999953508377
1757088399699705900,2.754705810546875,0.006599999964237213,0.016499999910593033,-0.0882750004529953
1757088399709259000,2.764259033203125,0.004124999977648258,0.012924999929964542,-0.09679999947547913
1757088399718812200,2.773812255859375,-0.0031624999828636646,0.007974999956786633,-0.10656250268220901
1757088399728365300,2.783365234375,-0.010587500408291817,0.005499999970197678,-0.1163249984383583
1757088399737918200,2.792918212890625,-0.017875000834465027,0.006737499963492155,-0.1200374960899353
1757088399747471400,2.802471435546875,-0.025162499397993088,0.010449999943375587,-0.11879999935626984
1757088399757024300,2.812024169921875,-0.03135000169277191,0.027499999850988388,-0.11508750170469284
1757088399766577400,2.821577392578125,-0.03863750025629997,0.05692499876022339,-0.113987497985363
1757088399776130300,2.83113037109375,-0.0471624992787838,0.09350000321865082,-0.1200374960899353
1757088399785683500,2.840683349609375,-0.05582499876618385,0.12402500212192535,-0.1335124969482422
1757088399795236600,2.850236572265625,-0.06435000151395798,0.13997499644756317,-0.15303750336170197
1757088399804789800,2.859789794921875,-0.06792499870061874,0.13255000114440918,-0.17627499997615814
1757088399814343000,2.869343017578125,-0.07163749635219574,0.10449999570846558,-0.20184999704360962
1757088399823896000,2.87889599609375,-0.0728750005364418,0.07397499680519104,-0.22632500529289246
1757088399833449000,2.888448974609375,-0.07535000145435333,0.05321250110864639,-0.25561249256134033
1757088399843001900,2.898001953125,-0.07768750190734863,0.04702499881386757,-0.28984999656677246
1757088399852555000,2.907554931640625,-0.08139999955892563,0.05197500064969063,-0.32532501220703125
1757088399862108000,2.91710791015625,-0.08758749812841415,0.06544999778270721,-0.35942500829696655
1757088399871661300,2.926661376953125,-0.08868750184774399,0.09102500230073929,-0.3876124918460846
1757088399881214200,2.936214111328125,-0.09239999949932098,0.1350249946117401,-0.41318750381469727
1757088399890767400,2.945767333984375,-0.09611249715089798,0.22055000066757202,-0.44013750553131104
1757088399900320300,2.9553203125,-0.10339999943971634,0.3647874891757965,-0.4633750021457672
1757088399909873400,2.964873291015625,-0.1083500012755394,0.5198875069618225,-0.47561249136924744
1757088399919426600,2.974426513671875,-0.1046374961733818,0.6311249732971191,-0.4926624894142151
1757088399928979700,2.983979736328125,-0.09858749806880951,0.6872249841690063,-0.5244249701499939
1757088399938532600,2.99353271484375,-0.09363749623298645,0.7006999850273132,-0.5611374974250793
1757088399948085800,3.003085693359375,-0.08758749812841415,0.679937481880188,-0.589187502861023
1757088399957639000,3.012638916015625,-0.0826374962925911,0.6396499872207642,-0.6136624813079834
1757088399967192000,3.022192138671875,-0.0728750005364418,0.609125018119812,-0.645425021648407
1757088399976745000,3.031744873046875,-0.05816249921917915,0.5993624925613403,-0.6917625069618225
1757088399986297900,3.0412978515625,-0.05211250111460686,0.596887469291687,-0.7565249800682068
1757088399995851000,3.05085107421875,-0.04235000163316727,0.6017000079154968,-0.8347625136375427
1757088400005404200,3.060404052734375,-0.011824999935925007,0.609125018119812,-0.9178124666213989
1757088400014957300,3.069957275390625,0.04441250115633011,0.6126999855041504,-0.9862874746322632
1757088400024510200,3.07951025390625,0.10188750177621841,0.5821750164031982,-1.035099983215332
1757088400034063400,3.0890634765625,0.133650004863739,0.5491750240325928,-1.0656249523162842
1757088400043616300,3.0986162109375,0.13598750531673431,0.5076500177383423,-1.0863875150680542
1757088400053169400,3.10816943359375,0.1494625061750412,0.4221250116825104,-1.1316249370574951
1757088400062722600,3.11772265625,0.18369999527931213,0.367125004529953,-1.2329624891281128
1757088400072275700,3.127275634765625,0.24969999492168427,0.4343625009059906,-1.4125374555587769
1757088400081828600,3.13682861328125,0.30098751187324524,0.5504124760627747,-1.6850625276565552
1757088400091381800,3.1463818359375,0.3559874892234802,0.7287499904632568,-1.9953999519348145
1757088400100935000,3.155934814453125,0.3792249858379364,0.8777999877929688,-2.2714998722076416
1757088400110488000,3.165488037109375,0.39627498388290405,0.9255124926567078,-2.4718375205993652
1757088400120041000,3.175041015625,0.42803749442100525,0.871749997138977,-2.548837423324585
1757088400129594000,3.184593994140625,0.4548499882221222,0.5784624814987183,-2.512125015258789
1757088400139147300,3.194147216796875,0.4670875072479248,0.1069749966263771,-2.4473624229431152
1757088400148700400,3.203700439453125,0.4450874924659729,-0.49293750524520874,-2.444887399673462
1757088400158253300,3.21325341796875,0.39998748898506165,-1.4335750341415405,-2.482837438583374
1757088400167806200,3.22280615234375,0.2569875121116638,-2.2851123809814453,-2.523124933242798
1757088400177359400,3.232359375,0.10670000314712524,-2.5979249477386475,-2.6281750202178955
1757088400186912500,3.24191259765625,-0.0056374999694526196,-2.3645875453948975,-2.716175079345703
1757088400196465700,3.251465576171875,-0.18768750131130219,-2.0542500019073486,-2.7539875507354736
1757088400206018600,3.2610185546875,-0.42721250653266907,-2.0652499198913574,-2.8164124488830566
1757088400215571700,3.27057177734375,-0.6848874688148499,-2.156825065612793,-2.7736499309539795
1757088400225124600,3.28012451171875,-0.9476500153541565,-2.0359625816345215,-2.714937448501587
1757088400234677800,3.289677734375,-1.1089375019073486,-1.6876749992370605,-2.601362466812134
1757088400244231200,3.299231201171875,-1.1089375019073486,-1.288237452507019,-2.4070749282836914
1757088400253783800,3.30878369140625,-1.0575125217437744,-0.8960874676704407,-2.206737518310547
1757088400263337000,3.3183369140625,-0.9366499781608582,-0.4109874963760376,-2.154212474822998
1757088400272889900,3.327889892578125,-0.775362491607666,-0.011549999937415123,-2.284837484359741
1757088400282443000,3.337443115234375,-0.5762624740600586,0.14121249318122864,-2.4888875484466553
1757088400291996200,3.34699609375,-0.3404499888420105,0.19249999523162842,-2.6771249771118164
1757088400301549300,3.35654931640625,-0.12292499840259552,0.18507499992847443,-2.824937582015991
1757088400311102200,3.366102294921875,0.0541750006377697,-0.14354999363422394,-2.8677000999450684
1757088400320655400,3.3756552734375,0.19470000267028809,-0.5796999931335449,-2.7637500762939453
1757088400330208300,3.385208251953125,0.3375625014305115,-0.8056125044822693,-2.5866498947143555
1757088400339761400,3.394761474609375,0.4207499921321869,-0.784850001335144,-2.4010250568389893
1757088400349314600,3.404314453125,0.42198750376701355,-0.5332249999046326,-2.2177374362945557
1757088400358867700,3.41386767578125,0.3755125105381012,-0.15331250429153442,-2.0369250774383545
1757088400368420600,3.423420654296875,0.3180375099182129,0.16321249306201935,-1.8585875034332275
1757088400377973800,3.432973876953125,0.30469998717308044,0.24131250381469727,-1.7803499698638916
1757088400387526700,3.442526611328125,0.28503748774528503,0.1387374997138977,-1.7888749837875366
1757088400397080000,3.452080078125,0.2667500078678131,0.11426249891519547,-1.7754000425338745
1757088400406633000,3.461633056640625,0.35475000739097595,0.22426250576972961,-1.799875020980835
1757088400416186000,3.47118603515625,0.4427500069141388,0.3268375098705292,-1.8414000272750854
1757088400425739000,3.480739013671875,0.4525125026702881,0.19978749752044678,-1.8671125173568726
1757088400435292000,3.4902919921875,0.3339875042438507,-0.03478749841451645,-1.8841625452041626
1757088400444845300,3.49984521484375,0.27403751015663147,-0.16554999351501465,-1.8951624631881714
1757088400454398500,3.5093984375,0.271699994802475,-0.15565000474452972,-1.896399974822998
1757088400463951400,3.518951416015625,0.3022249937057495,-0.05431250110268593,-1.865875005722046
1757088400473504300,3.528504150390625,0.35227498412132263,0.03368749842047691,-1.8279249668121338
1757088400483057400,3.538057373046875,0.3718000054359436,0.10944999754428864,-1.7741625308990479
1757088400492610300,3.5476103515625,0.3730374872684479,0.21683749556541443,-1.7278250455856323
1757088400502163700,3.557163818359375,0.4035624861717224,0.3353624939918518,-1.699637532234192
1757088400511716600,3.566716552734375,0.41456249356269836,0.430649995803833,-1.6777750253677368
1757088400521269500,3.57626953125,0.44632500410079956,0.5259374976158142,-1.650825023651123
1757088400530822700,3.58582275390625,0.4805625081062317,0.596887469291687,-1.6288249492645264
1757088400540375800,3.595375732421875,0.5110874772071838,0.5687000155448914,-1.6398249864578247
1757088400549929000,3.604928955078125,0.5478000044822693,0.505174994468689,-1.6447750329971313
1757088400559481900,3.61448193359375,0.5563250184059143,0.4258374869823456,-1.642300009727478
1757088400569035000,3.624034912109375,0.5403749942779541,0.37578749656677246,-1.6350125074386597
1757088400578588000,3.633587890625,0.5013250112533569,0.43188750743865967,-1.5690125226974487
1757088400588141000,3.64314111328125,0.4745124876499176,0.522362470626831,-1.4822499752044678
1757088400597694200,3.652694091796875,0.4548499882221222,0.5284125208854675,-1.4101999998092651
1757088400607247000,3.6622470703125,0.4512749910354614,0.5418875217437744,-1.3564374446868896
1757088400616800300,3.67180029296875,0.42198750376701355,0.5369374752044678,-1.313675045967102
1757088400626353200,3.681353271484375,0.35475000739097595,0.5028374791145325,-1.306249976158142
1757088400635906300,3.69090625,0.2484624981880188,0.41964998841285706,-1.306249976158142
1757088400645459500,3.70045947265625,0.17022499442100525,0.5308874845504761,-1.1939125061035156
1757088400655012600,3.7100126953125,0.07493750005960464,0.6041749715805054,-1.0533875226974487
1757088400664565500,3.7195654296875,0.004124999977648258,0.6432250142097473,-0.9470999836921692
1757088400674118400,3.729118408203125,-0.04358749836683273,0.7129374742507935,-0.8787624835968018
1757088400683671600,3.738671630859375,-0.09239999949932098,0.7886999845504761,-0.8298124670982361
1757088400693224700,3.748224609375,-0.164450004696846,0.8338000178337097,-0.7577624917030334
1757088400702777900,3.75777783203125,-0.21092499792575836,0.854699969291687,-0.6637125015258789
1757088400712330800,3.767330810546875,-0.23663750290870667,0.8094624876976013,-0.5611374974250793
1757088400721884000,3.7768837890625,-0.24639999866485596,0.7409874796867371,-0.455949991941452
1757088400731437000,3.78643701171875,-0.227974995970726,0.635937511920929,-0.36313748359680176
1757088400740990200,3.795990234375,-0.20487499237060547,0.5516499876976013,-0.28132501244544983
1757088400750543000,3.805543212890625,-0.17916250228881836,0.4930749833583832,-0.2250874936580658
1757088400760096000,3.815095947265625,-0.16087499260902405,0.4918375015258789,-0.1872749924659729
1757088400769649200,3.824649169921875,-0.1363999992609024,0.5553625226020813,-0.1578499972820282
1757088400779202300,3.834202392578125,-0.1106875017285347,0.613937497138977,-0.13832500576972961
1757088400788755500,3.84375537109375,-0.08758749812841415,0.6188874840736389,-0.14685000479221344
1757088400798308400,3.853308349609375,-0.06792499870061874,0.5601750016212463,-0.1652749925851822
1757088400807861500,3.862861572265625,-0.06435000151395798,0.48083749413490295,-0.1835625022649765
1757088400817414400,3.872414306640625,-0.04358749836683273,0.4086500108242035,-0.19085000455379486
1757088400826967600,3.881967529296875,-0.0031624999828636646,0.35983750224113464,-0.18479999899864197
1757088400836520400,3.8915205078125,0.013887500390410423,0.29878750443458557,-0.16032500565052032
1757088400846073600,3.901073486328125,0.026124998927116394,0.2657875120639801,-0.13708749413490295
1757088400855626800,3.910626708984375,0.02969999983906746,0.2400749921798706,-0.1163249984383583
1757088400865179600,3.9201796875,0.03712499886751175,0.2157374918460846,-0.10051249712705612
1757088400874732800,3.92973291015625,0.02969999983906746,0.18507499992847443,-0.0882750004529953
1757088400884286200,3.9392861328125,0.03464999794960022,0.16321249306201935,-0.08332499861717224
1757088400893839000,3.948839111328125,0.03217500075697899,0.13378749787807465,-0.08332499861717224
1757088400903392000,3.95839208984375,0.026124998927116394,0.10944999754428864,-0.08703749626874924
1757088400912945000,3.96794482421875,0.021175000816583633,0.0752125009894371,-0.0845625028014183
1757088400922498000,3.977498046875,0.018699999898672104,0.03368749842047691,-0.08703749626874924
1757088400932051200,3.98705126953125,0.026124998927116394,-0.0005499999970197678,-0.0845625028014183
1757088400941604400,3.996604248046875,0.02969999983906746,-0.03355000168085098,-0.08332499861717224
1757088400951157200,4.0061572265625,0.028599999845027924,-0.04936249926686287,-0.08332499861717224
1757088400960710400,4.01571044921875,0.03341250121593475,-0.04455000162124634,-0.07232499867677689
1757088400970263300,4.02526318359375,0.04193750023841858,-0.03849999979138374,-0.043037500232458115
1757088400989369300,4.044369384765625,0.048124998807907104,-0.023787500336766243,0.0742499977350235
1757088400998922500,4.053922607421875,0.04441250115633011,-0.021312499418854713,0.12058749794960022
1757088401008475600,4.0634755859375,0.028599999845027924,-0.014024999924004078,0.12430000305175781
1757088401018028500,4.073028564453125,0.005362499970942736,-0.023787500336766243,0.08882500231266022
1757088401027581700,4.082581787109375,-0.016637500375509262,-0.06283749639987946,0.04853750020265579
1757088401037134800,4.092134765625,-0.021587500348687172,-0.1288374960422516,0.04372499883174896
1757088401046688000,4.10168798828125,-0.022824998944997787,-0.17407499253749847,0.07177499681711197
1757088401056241000,4.111240966796875,-0.03863750025629997,-0.15936249494552612,0.09624999761581421
1757088401065793800,4.120793701171875,-0.06916250288486481,-0.11412499845027924,0.10848750174045563
1757088401075347000,4.130346923828125,-0.10587500035762787,-0.05555000156164169,0.12553749978542328
1757088401084900400,4.139900390625,-0.13516250252723694,-0.020075000822544098,0.15606249868869781
1757088401094453200,4.149453369140625,-0.15111249685287476,0.028737500309944153,0.15606249868869781
1757088401104006100,4.159006103515625,-0.15344999730587006,0.06297499686479568,0.14877499639987946
1757088401113559300,4.168559326171875,-0.15344999730587006,0.09844999760389328,0.11948750168085098
1757088401123112400,4.178112548828125,-0.1522125005722046,0.09968750178813934,0.08524999767541885
1757088401132665300,4.187665283203125,-0.15839999914169312,0.07397499680519104,0.05472499877214432
1757088401142218500,4.197218505859375,-0.164450004696846,0.043449997901916504,0.027775000780820847
1757088401151771400,4.206771484375,-0.17311249673366547,0.020212499424815178,0.01677500084042549
1757088401161324500,4.216324462890625,-0.1779250055551529,0.028737500309944153,0.009487500414252281
1757088401170877700,4.225877685546875,-0.18287499248981476,0.04702499881386757,-0.0002749999985098839
1757088401180430800,4.235430908203125,-0.17668749392032623,0.05073750019073486,-0.003987499978393316
1757088401189983700,4.244983642578125,-0.16321249306201935,0.03244999796152115,0.0009624999947845936
1757088401199536600,4.25453662109375,-0.1522125005722046,0.009212499484419823,0.0032999999821186066
1757088401209089800,4.26408984375,-0.13144999742507935,-0.020075000822544098,0.0057749999687075615
1757088401218643000,4.273642822265625,-0.11316250264644623,-0.03849999979138374,-0.0015124999918043613
1757088401228196000,4.283196044921875,-0.10339999943971634,-0.040837500244379044,-0.010037500411272049
1757088401237749000,4.2927490234375,-0.09116250276565552,-0.036024998873472214,-0.016224998980760574
1757088401247302000,4.302302001953125,-0.07768750190734863,-0.03355000168085098,-0.023512499406933784
1757088401256855000,4.31185498046875,-0.06792499870061874,-0.03478749841451645,-0.03203750029206276
1757088401266408000,4.321407958984375,-0.05816249921917915,-0.03959999978542328,-0.035750001668930054
1757088401275961000,4.330961181640625,-0.04839999973773956,-0.045787498354911804,-0.033275000751018524
1757088401285514200,4.34051416015625,-0.03492499887943268,-0.048262499272823334,-0.030799999833106995
1757088401295067400,4.3500673828125,-0.021587500348687172,-0.040837500244379044,-0.030799999833106995
1757088401304620300,4.359620361328125,-0.010587500408291817,-0.03355000168085098,-0.03203750029206276
1757088401314173200,4.369173095703125,0.0016499999910593033,-0.028599999845027924,-0.03451250120997429
1757088401323726300,4.378726318359375,0.011412499472498894,-0.022549999877810478,-0.04179999977350235
1757088401333279500,4.388279541015625,0.023649999871850014,-0.018837500363588333,-0.05156249925494194
1757088401342832600,4.39783251953125,0.028599999845027924,-0.022549999877810478,-0.06132499873638153
1757088401352385800,4.4073857421875,0.030937500298023224,-0.026262499392032623,-0.07232499867677689
1757088401361938400,4.4169384765625,0.03712499886751175,-0.03231250122189522,-0.082225002348423
1757088401371491600,4.42649169921875,0.04193750023841858,-0.04207500070333481,-0.0845625028014183
1757088401381044700,4.436044677734375,0.045649997889995575,-0.03959999978542328,-0.07851249724626541
1757088401390597600,4.44559765625,0.050462499260902405,-0.026262499392032623,-0.06751249730587006
1757088401400150800,4.45515087890625,0.05664999783039093,-0.016499999910593033,-0.05156249925494194
1757088401409704000,4.464703857421875,0.057887498289346695,-0.010312499478459358,-0.035750001668930054
1757088401419256800,4.4742568359375,0.055412501096725464,0.0019249999895691872,-0.02474999986588955
1757088401428810000,4.48381005859375,0.050462499260902405,0.007974999956786633,-0.018699999898672104
1757088401438363000,4.49336279296875,0.04441250115633011,0.014162499457597733,-0.016224998980760574
1757088401447916000,4.502916015625,0.03712499886751175,0.017737500369548798,-0.01746249943971634
1757088401457469200,4.51246923828125,0.030937500298023224,0.021449999883770943,-0.016224998980760574
1757088401467022000,4.52202197265625,0.02241249941289425,0.022687500342726707,-0.01746249943971634
1757088401476575200,4.5315751953125,0.016362499445676804,0.016499999910593033,-0.01251249946653843
1757088401486128000,4.541128173828125,0.012649999931454659,0.014162499457597733,-0.01251249946653843
1757088401495681500,4.550681640625,0.010174999944865704,0.011687500402331352,-0.01251249946653843
1757088401505234400,4.560234375,0.012649999931454659,0.011687500402331352,-0.01251249946653843
1757088401514787600,4.56978759765625,0.013887500390410423,0.007974999956786633,-0.01251249946653843
1757088401524340500,4.579340576171875,0.011412499472498894,0.007974999956786633,-0.005224999971687794
1757088401533893600,4.5888935546875,0.010174999944865704,0.0031624999828636646,-0.0002749999985098839
1757088401543446500,4.598446533203125,0.008937500417232513,-0.007837500423192978,0.002199999988079071
1757088401552999700,4.607999755859375,0.005362499970942736,-0.012787500396370888,0.0032999999821186066
1757088401562552600,4.617552490234375,0.004124999977648258,-0.007837500423192978,0.0032999999821186066
1757088401572105700,4.627105712890625,-0.0008249999955296516,0.0006874999962747097,0.004537499975413084
1757088401581659000,4.636658935546875,0.0004124999977648258,0.006737499963492155,0.0057749999687075615
1757088401591212000,4.6462119140625,0.0004124999977648258,0.007974999956786633,0.007012499962002039
1757088401600765000,4.655764892578125,-0.002062499988824129,0.006737499963492155,0.0057749999687075615
1757088401610317800,4.66531787109375,0.0016499999910593033,0.005499999970197678,-0.0002749999985098839
1757088401619871000,4.67487109375,0.004124999977648258,0.006737499963492155,-0.005224999971687794
1757088401629423900,4.684423828125,0.007699999958276749,-0.0005499999970197678,-0.008799999952316284
1757088401638977000,4.69397705078125,0.011412499472498894,-0.007837500423192978,-0.007699999958276749
1757088401648530200,4.7035302734375,0.015124999918043613,-0.006599999964237213,-0.002749999985098839
1757088401658083000,4.7130830078125,0.016362499445676804,-0.0030249999836087227,-0.0002749999985098839
1757088401667636200,4.72263623046875,0.01759999990463257,-0.0005499999970197678,0.0057749999687075615
1757088401677189400,4.732189453125,0.023649999871850014,-0.0005499999970197678,0.011962499469518661
1757088401686742500,4.741742431640625,0.02488750033080578,0.005499999970197678,0.015537500381469727
1757088401696295400,4.75129541015625,0.02736249938607216,0.014162499457597733,0.01677500084042549
1757088401705848300,4.760848388671875,0.02969999983906746,0.015262499451637268,0.018012499436736107
1757088401715401500,4.7704013671875,0.03341250121593475,0.017737500369548798,0.01924999989569187
1757088401724954600,4.77995458984375,0.035887498408555984,0.016499999910593033,0.020487500354647636
1757088401734507800,4.7895078125,0.038362499326467514,0.012924999929964542,0.020487500354647636
1757088401744060700,4.799060791015625,0.03959999978542328,0.007974999956786633,0.024062499403953552
1757088401753613600,4.808613525390625,0.035887498408555984,0.010449999943375587,0.024062499403953552
1757088401763166700,4.818166748046875,0.03217500075697899,0.011687500402331352,0.022962499409914017
1757088401772719900,4.827719970703125,0.03217500075697899,0.011687500402331352,0.022962499409914017
1757088401782272800,4.837272705078125,0.02969999983906746,0.016499999910593033,0.026537500321865082
1757088401791826000,4.846825927734375,0.028599999845027924,0.018975000828504562,0.030249999836087227
1757088401801378800,4.85637890625,0.026124998927116394,0.015262499451637268,0.03148749843239784
1757088401810932000,4.865931884765625,0.02241249941289425,0.012924999929964542,0.030249999836087227
1757088401820484900,4.87548486328125,0.01993750035762787,0.010449999943375587,0.025299999862909317
1757088401830038300,4.885038330078125,0.016362499445676804,0.007974999956786633,0.021724998950958252
1757088401839591200,4.894591064453125,0.011412499472498894,0.010449999943375587,0.018012499436736107
1757088401849144000,4.90414404296875,0.007699999958276749,0.010449999943375587,0.015537500381469727
1757088401858697200,4.913697265625,0.004124999977648258,0.011687500402331352,0.014299999922513962
1757088401868250000,4.92325,0.0028874999843537807,0.011687500402331352,0.010724999941885471
1757088401877803300,4.93280322265625,0.0004124999977648258,0.007974999956786633,0.009487500414252281
1757088401887356400,4.9423564453125,-0.002062499988824129,0.006737499963492155,0.007012499962002039
1757088401896909600,4.95190966796875,-0.0031624999828636646,0.0042624999769032,0.0057749999687075615
1757088401906462500,4.96146240234375,-0.004399999976158142,0.0006874999962747097,0.007012499962002039
1757088401916015400,4.971015380859375,-0.0056374999694526196,-0.0017874999903142452,0.007012499962002039
1757088401925568500,4.980568603515625,-0.0056374999694526196,-0.005499999970197678,0.008249999955296516
1757088401935121400,4.990121337890625,-0.0056374999694526196,-0.007837500423192978,0.008249999955296516
1757088401944674800,4.9996748046875,-0.0031624999828636646,-0.010312499478459358,0.004537499975413084
1757088401954227700,5.009227783203125,-0.0008249999955296516,-0.012787500396370888,0.0032999999821186066
1757088401963780600,5.018780517578125,0.0004124999977648258,-0.014024999924004078,0.002199999988079071
1757088401973333800,5.028333740234375,0.0016499999910593033,-0.016499999910593033,0.0032999999821186066
1757088401982887000,5.037886962890625,0.0028874999843537807,-0.016499999910593033,0.0032999999821186066
1757088401992439800,5.047439697265625,0.005362499970942736,-0.01759999990463257,0.0032999999821186066
1757088402001993000,5.056992919921875,0.006599999964237213,-0.016499999910593033,0.0032999999821186066
1757088402011545900,5.0665458984375,0.005362499970942736,-0.016499999910593033,0.0032999999821186066
1757088402021099000,5.07609912109375,0.006599999964237213,-0.018837500363588333,0.0032999999821186066
1757088402030652200,5.085652099609375,0.006599999964237213,-0.020075000822544098,0.0032999999821186066
1757088402040205300,5.095205322265625,0.004124999977648258,-0.021312499418854713,0.0057749999687075615
1757088402049758200,5.10475830078125,0.004124999977648258,-0.022549999877810478,0.0057749999687075615
1757088402059311000,5.11431103515625,0.004124999977648258,-0.021312499418854713,0.007012499962002039
1757088402068864300,5.1238642578125,0.0028874999843537807,-0.018837500363588333,0.008249999955296516
1757088402078417400,5.13341748046875,0.0016499999910593033,-0.01759999990463257,0.009487500414252281
1757088402087970600,5.142970458984375,0.0016499999910593033,-0.015262499451637268,0.007012499962002039
1757088402097523500,5.1525234375,0.0004124999977648258,-0.012787500396370888,0.007012499962002039
1757088402107076400,5.162076416015625,-0.0008249999955296516,-0.007837500423192978,0.0057749999687075615
1757088402116629500,5.17162939453125,-0.0008249999955296516,-0.0042624999769032,0.007012499962002039
1757088402126182700,5.1811826171875,0.0016499999910593033,-0.0030249999836087227,0.0057749999687075615
1757088402135735600,5.190735595703125,0.0028874999843537807,-0.0017874999903142452,0.0057749999687075615
1757088402145288700,5.200288818359375,0.005362499970942736,-0.0005499999970197678,0.004537499975413084
1757088402154841900,5.209841796875,0.005362499970942736,-0.0017874999903142452,0.002199999988079071
1757088402164394800,5.219394775390625,0.007699999958276749,-0.0030249999836087227,0.002199999988079071
1757088402173947600,5.22894775390625,0.010174999944865704,-0.0030249999836087227,0.002199999988079071
1757088402183500500,5.23850048828125,0.010174999944865704,-0.0030249999836087227,0.0009624999947845936
1757088402193053700,5.2480537109375,0.010174999944865704,-0.0005499999970197678,0.002199999988079071
1757088402202606800,5.25760693359375,0.008937500417232513,0.0019249999895691872,0.004537499975413084
1757088402212160000,5.267159912109375,0.008937500417232513,0.0019249999895691872,0.008249999955296516
1757088402221713000,5.276712890625,0.008937500417232513,0.0031624999828636646,0.010724999941885471
1757088402231265800,5.286265869140625,0.008937500417232513,0.0019249999895691872,0.010724999941885471
1757088402240819000,5.29581884765625,0.011412499472498894,-0.0017874999903142452,0.007012499962002039
1757088402250372000,5.3053720703125,0.011412499472498894,-0.0030249999836087227,0.004537499975413084
1757088402259925200,5.31492529296875,0.010174999944865704,-0.0017874999903142452,0.002199999988079071
1757088402269478100,5.32447802734375,0.008937500417232513,0.0019249999895691872,-0.0002749999985098839
1757088402279031000,5.334031005859375,0.004124999977648258,0.0042624999769032,-0.0002749999985098839
1757088402288584200,5.343584228515625,0.0004124999977648258,0.006737499963492155,-0.0015124999918043613
1757088402298137300,5.353137451171875,-0.014162499457597733,0.03726249933242798,0.007012499962002039
1757088402307690200,5.362690185546875,-0.014162499457597733,0.04221250116825104,0.008249999955296516
1757088402317243400,5.372243408203125,-0.011824999935925007,0.015262499451637268,0.004537499975413084
1757088402326796300,5.38179638671875,-0.010587500408291817,0.012924999929964542,0.0057749999687075615
1757088402336349400,5.391349365234375,-0.010587500408291817,0.011687500402331352,0.0032999999821186066
1757088402345902300,5.40090234375,-0.008112499490380287,0.005499999970197678,0.002199999988079071
1757088402355455500,5.41045556640625,-0.006874999962747097,0.005499999970197678,0.0009624999947845936
1757088402365008600,5.420008544921875,-0.006874999962747097,0.007974999956786633,0.002199999988079071
1757088402374561800,5.429561767578125,-0.0056374999694526196,0.009212499484419823,0.002199999988079071
1757088402384114700,5.43911474609375,-0.0056374999694526196,0.007974999956786633,-0.0002749999985098839
1757088402393667600,5.44866748046875,-0.0031624999828636646,0.006737499963492155,-0.0002749999985098839
1757088402403220700,5.458220703125,-0.002062499988824129,0.0042624999769032,-0.0015124999918043613
1757088402412773600,5.467773681640625,-0.002062499988824129,0.0006874999962747097,-0.002749999985098839
1757088402422326800,5.477326904296875,-0.0008249999955296516,-0.0017874999903142452,-0.002749999985098839
1757088402431879700,5.486879638671875,0.0004124999977648258,-0.0042624999769032,-0.002749999985098839
1757088402441432800,5.496432861328125,0.0004124999977648258,-0.0030249999836087227,-0.002749999985098839
1757088402450985700,5.50598583984375,0.0004124999977648258,-0.0017874999903142452,-0.002749999985098839
1757088402460539000,5.515538818359375,0.0016499999910593033,-0.0005499999970197678,-0.002749999985098839
1757088402470091800,5.525091796875,0.0028874999843537807,0.0006874999962747097,-0.002749999985098839
1757088402479645200,5.534645263671875,0.0016499999910593033,0.0006874999962747097,-0.002749999985098839
1757088402489198000,5.544197998046875,0.0028874999843537807,-0.0005499999970197678,-0.002749999985098839
1757088402498751000,5.5537509765625,0.0028874999843537807,-0.0030249999836087227,-0.002749999985098839
1757088402508304100,5.56330419921875,0.0016499999910593033,-0.0005499999970197678,-0.002749999985098839
1757088402517857300,5.572857177734375,0.0016499999910593033,-0.0005499999970197678,-0.002749999985098839
1757088402527410200,5.58241015625,0.0004124999977648258,0.0006874999962747097,-0.0015124999918043613
1757088402536963300,5.59196337890625,-0.0008249999955296516,0.0006874999962747097,-0.002749999985098839
1757088402546516200,5.60151611328125,-0.0008249999955296516,0.0019249999895691872,-0.003987499978393316
1757088402556069400,5.6110693359375,-0.0008249999955296516,0.0006874999962747097,-0.003987499978393316
1757088402565622300,5.620622314453125,-0.0008249999955296516,0.0006874999962747097,-0.005224999971687794
1757088402575175400,5.630175537109375,-0.0008249999955296516,0.0006874999962747097,-0.005224999971687794
1757088402584728600,5.639728515625,0.0004124999977648258,0.0006874999962747097,-0.003987499978393316
1757088402594281500,5.649281494140625,0.0004124999977648258,0.0006874999962747097,-0.003987499978393316
1757088402603834400,5.65883447265625,0.0004124999977648258,0.0006874999962747097,-0.003987499978393316
1757088402613387500,5.668387451171875,0.0004124999977648258,0.0019249999895691872,-0.003987499978393316
1757088402622940700,5.677940673828125,0.0016499999910593033,0.0019249999895691872,-0.003987499978393316
1757088402632493600,5.68749365234375,0.0016499999910593033,0.0019249999895691872,-0.003987499978393316
1757088402642046700,5.697046630859375,0.0016499999910593033,0.0019249999895691872,-0.002749999985098839
1757088402651599600,5.706599609375,0.0028874999843537807,0.0006874999962747097,-0.0015124999918043613
1757088402661152800,5.71615283203125,0.0028874999843537807,0.0006874999962747097,-0.0002749999985098839
1757088402670706000,5.725705810546875,0.0028874999843537807,0.0006874999962747097,-0.0002749999985098839
1757088402680258800,5.7352587890625,0.0028874999843537807,0.0006874999962747097,-0.0002749999985098839
1757088402689812000,5.74481201171875,0.0028874999843537807,0.0006874999962747097,-0.0015124999918043613
1757088402699364900,5.75436474609375,0.0028874999843537807,0.0019249999895691872,-0.002749999985098839
1757088402708917800,5.763917724609375,0.0016499999910593033,-0.0005499999970197678,-0.002749999985098839
1757088402718471000,5.773470947265625,0.0028874999843537807,-0.0005499999970197678,-0.003987499978393316
1757088402728024000,5.783024169921875,0.0016499999910593033,-0.0005499999970197678,-0.002749999985098839
1757088402737577200,5.7925771484375,0.0016499999910593033,-0.0005499999970197678,-0.002749999985098839
1757088402747130000,5.802130126953125,0.0016499999910593033,-0.0017874999903142452,-0.002749999985098839
1757088402756683000,5.81168310546875,0.0016499999910593033,-0.0017874999903142452,-0.002749999985098839
1757088402766236200,5.821236083984375,0.0016499999910593033,-0.0005499999970197678,-0.002749999985098839
1757088402775789300,5.830789306640625,0.0016499999910593033,-0.0005499999970197678,-0.002749999985098839
1757088402785342200,5.84034228515625,0.0004124999977648258,-0.0005499999970197678,-0.002749999985098839
1757088402794895400,5.849895263671875,0.0016499999910593033,-0.0005499999970197678,-0.002749999985098839
1757088402804448300,5.8594482421875,0.0016499999910593033,0.0006874999962747097,-0.002749999985098839
1757088402814001700,5.869001708984375,0.0004124999977648258,-0.0005499999970197678,-0.002749999985098839
1757088402823554600,5.878554443359375,-0.0008249999955296516,-0.0005499999970197678,-0.002749999985098839
1757088402833107500,5.888107421875,-0.0008249999955296516,-0.0005499999970197678,-0.002749999985098839
1757088402842660600,5.89766064453125,-0.0008249999955296516,-0.0005499999970197678,-0.0015124999918043613
1757088402852213800,5.9072138671875,-0.0008249999955296516,-0.0005499999970197678,-0.0015124999918043613
1757088402861766400,5.916766357421875,0.0004124999977648258,-0.0005499999970197678,-0.002749999985098839
1757088402871319800,5.92631982421875,0.0004124999977648258,-0.0005499999970197678,-0.002749999985098839
1757088402880872700,5.935872802734375,0.0004124999977648258,0.0006874999962747097,-0.002749999985098839
1757088402890425900,5.94542578125,0.0016499999910593033,0.0006874999962747097,-0.0015124999918043613
1757088402899978800,5.954978759765625,0.0016499999910593033,-0.0005499999970197678,-0.0002749999985098839
1757088402909531600,5.96453173828125,0.0028874999843537807,-0.0017874999903142452,-0.0002749999985098839
1757088402919085000,5.9740849609375,0.0028874999843537807,-0.0017874999903142452,0.0009624999947845936
1757088402928638000,5.983637939453125,0.0016499999910593033,-0.0017874999903142452,0.0009624999947845936
1757088402938191000,5.993191162109375,0.0016499999910593033,0.0006874999962747097,-0.0002749999985098839
1757088402957297000,6.012296875,0.0016499999910593033,0.0031624999828636646,-0.002749999985098839
1757088402966850000,6.02185009765625,0.0004124999977648258,0.0031624999828636646,-0.003987499978393316
1757088402976403000,6.03140283203125,0.0028874999843537807,0.0006874999962747097,-0.002749999985098839
1757088402985956000,6.0409560546875,0.0028874999843537807,-0.0017874999903142452,-0.0015124999918043613
1757088402995509200,6.05050927734375,0.0028874999843537807,-0.0042624999769032,0.0009624999947845936
1757088403005062100,6.060062255859375,0.0016499999910593033,-0.0042624999769032,0.0009624999947845936
1757088403014615300,6.069615234375,0.0004124999977648258,-0.0005499999970197678,0.002199999988079071
1757088403024168200,6.079168212890625,-0.0008249999955296516,0.0019249999895691872,0.002199999988079071
1757088403033721300,6.088721435546875,-0.002062499988824129,0.0042624999769032,0.0009624999947845936
1757088403043274500,6.0982744140625,-0.0008249999955296516,0.0042624999769032,0.0009624999947845936
1757088403052827400,6.107827392578125,-0.0031624999828636646,0.0031624999828636646,-0.0002749999985098839
1757088403062380300,6.11738037109375,-0.0031624999828636646,0.0019249999895691872,-0.002749999985098839
1757088403071933400,6.126933349609375,-0.0031624999828636646,-0.0005499999970197678,-0.002749999985098839
1757088403081486300,6.136486328125,-0.0008249999955296516,-0.0005499999970197678,-0.0015124999918043613
1757088403091039500,6.14603955078125,-0.0008249999955296516,-0.0005499999970197678,-0.0015124999918043613
1757088403100592600,6.155592529296875,0.0004124999977648258,0.0006874999962747097,-0.0002749999985098839
1757088403110145500,6.1651455078125,0.0016499999910593033,0.0006874999962747097,-0.0002749999985098839
1757088403119698700,6.17469873046875,0.0016499999910593033,0.0006874999962747097,-0.0015124999918043613
1757088403129251600,6.18425146484375,0.0016499999910593033,0.0006874999962747097,-0.002749999985098839
1757088403138804700,6.1938046875,0.0016499999910593033,0.0006874999962747097,-0.002749999985098839
1757088403148357600,6.203357666015625,0.0016499999910593033,-0.0017874999903142452,-0.0015124999918043613
1757088403157910800,6.212910888671875,0.0016499999910593033,-0.0030249999836087227,-0.002749999985098839
1757088403167463700,6.222463623046875,0.0016499999910593033,-0.0042624999769032,-0.002749999985098839
1757088403177016800,6.232016845703125,0.0016499999910593033,-0.0017874999903142452,-0.002749999985098839
1757088403186570000,6.241570068359375,0.0004124999977648258,-0.0005499999970197678,-0.0015124999918043613
1757088403196123000,6.251122802734375,0.0016499999910593033,0.0006874999962747097,-0.0002749999985098839
1757088403205676000,6.260676025390625,-0.0008249999955296516,0.0006874999962747097,-0.0002749999985098839
1757088403215229000,6.27022900390625,0.0004124999977648258,0.0019249999895691872,-0.0015124999918043613
1757088403224781800,6.27978173828125,-0.0008249999955296516,0.0006874999962747097,-0.003987499978393316
1757088403234335200,6.289335205078125,-0.0008249999955296516,-0.0005499999970197678,-0.002749999985098839
1757088403243888000,6.29888818359375,0.0004124999977648258,-0.0017874999903142452,-0.002749999985098839
1757088403253441300,6.308441162109375,0.0004124999977648258,-0.0017874999903142452,-0.0015124999918043613
1757088403262994200,6.317994140625,0.0004124999977648258,-0.0030249999836087227,0.0009624999947845936
1757088403272547000,6.327547119140625,0.0004124999977648258,-0.0005499999970197678,-0.0002749999985098839
1757088403282100200,6.337100341796875,-0.0008249999955296516,0.0031624999828636646,-0.0002749999985098839
1757088403291653400,6.3466533203125,-0.0008249999955296516,0.0042624999769032,-0.0015124999918043613
1757088403301206300,6.356206298828125,-0.002062499988824129,0.005499999970197678,-0.0015124999918043613
1757088403310759400,6.365759521484375,-0.002062499988824129,0.005499999970197678,-0.003987499978393316
1757088403320312300,6.375312255859375,-0.0031624999828636646,0.0042624999769032,-0.005224999971687794
1757088403329865200,6.384865234375,-0.002062499988824129,0.0042624999769032,-0.006462499964982271
1757088403339418400,6.39441845703125,-0.0008249999955296516,0.0019249999895691872,-0.005224999971687794
1757088403348971300,6.40397119140625,-0.002062499988824129,0.0019249999895691872,-0.003987499978393316
1757088403358524400,6.4135244140625,-0.0008249999955296516,0.0019249999895691872,-0.003987499978393316
1757088403368077600,6.42307763671875,-0.002062499988824129,0.0019249999895691872,-0.002749999985098839
1757088403377630500,6.43263037109375,0.0004124999977648258,0.0019249999895691872,-0.002749999985098839
1757088403387183600,6.44218359375,0.0016499999910593033,-0.0005499999970197678,-0.0015124999918043613
1757088403396736500,6.451736572265625,0.0016499999910593033,-0.0030249999836087227,-0.002749999985098839
1757088403406289400,6.461289306640625,0.0028874999843537807,-0.005499999970197678,-0.002749999985098839
1757088403415842600,6.470842529296875,0.0028874999843537807,-0.007837500423192978,-0.003987499978393316
1757088403425395700,6.480395751953125,0.0028874999843537807,-0.009074999950826168,-0.005224999971687794
1757088403434948600,6.489948486328125,0.0016499999910593033,-0.009074999950826168,-0.005224999971687794
1757088403444501800,6.499501708984375,0.004124999977648258,-0.009074999950826168,-0.003987499978393316
1757088403454054700,6.5090546875,0.0028874999843537807,-0.007837500423192978,-0.003987499978393316
1757088403463607800,6.51860791015625,0.0028874999843537807,-0.007837500423192978,-0.005224999971687794
1757088403473161000,6.528160888671875,0.0028874999843537807,-0.006599999964237213,-0.006462499964982271
1757088403482713900,6.5377138671875,0.0016499999910593033,-0.006599999964237213,-0.010037500411272049
1757088403492266800,6.547266845703125,0.0028874999843537807,-0.009074999950826168,-0.01251249946653843
1757088403501820000,6.55681982421875,0.0028874999843537807,-0.021312499418854713,-0.014987500384449959
1757088403511373000,6.566373046875,-0.0008249999955296516,-0.036024998873472214,-0.02474999986588955
1757088403520926000,6.575926025390625,-0.0056374999694526196,-0.028599999845027924,-0.02227500081062317
1757088403530479000,6.58547900390625,-0.006874999962747097,-0.009074999950826168,-0.01979999989271164
1757088403540032000,6.595031982421875,-0.004399999976158142,0.0019249999895691872,-0.01746249943971634
1757088403549585200,6.604585205078125,-0.0008249999955296516,0.0019249999895691872,-0.01746249943971634
1757088403559138000,6.614137939453125,-0.002062499988824129,0.010449999943375587,-0.018699999898672104
1757088403568691200,6.623691162109375,-0.0031624999828636646,0.0042624999769032,-0.02227500081062317
1757088403578244400,6.633244384765625,-0.006874999962747097,-0.006599999964237213,-0.025987500324845314
1757088403587797200,6.64279736328125,-0.006874999962747097,0.0031624999828636646,-0.023512499406933784
1757088403597350100,6.65235009765625,-0.0056374999694526196,-0.014024999924004078,-0.02474999986588955
1757088403606903300,6.6619033203125,-0.008112499490380287,-0.020075000822544098,-0.025987500324845314
1757088403616456400,6.67145654296875,-0.008112499490380287,-0.010312499478459358,-0.01979999989271164
1757088403626009300,6.68100927734375,-0.006874999962747097,-0.01759999990463257,-0.018699999898672104
1757088403635562500,6.6905625,-0.011824999935925007,-0.018837500363588333,-0.013749999925494194
1757088403645115400,6.700115478515625,-0.013062499463558197,-0.0042624999769032,-0.008799999952316284
1757088403654668500,6.70966845703125,-0.011824999935925007,-0.0030249999836087227,-0.0015124999918043613
1757088403664221400,6.719221435546875,-0.009349999949336052,-0.0042624999769032,0.0009624999947845936
1757088403673774300,6.7287744140625,-0.004399999976158142,-0.009074999950826168,0.0032999999821186066
1757088403683327500,6.738327392578125,-0.004399999976158142,-0.007837500423192978,0.0057749999687075615
1757088403692880600,6.747880615234375,-0.0056374999694526196,-0.006599999964237213,0.007012499962002039
1757088403702433500,6.75743359375,-0.0056374999694526196,-0.0042624999769032,0.008249999955296516
1757088403711986400,6.766986328125,-0.004399999976158142,0.0006874999962747097,0.007012499962002039
1757088403721539600,6.77653955078125,-0.0031624999828636646,0.0019249999895691872,0.0057749999687075615
1757088403731092700,6.7860927734375,0.0004124999977648258,0.0019249999895691872,0.0057749999687075615
1757088403740645600,6.795645751953125,0.004124999977648258,-0.0005499999970197678,0.0057749999687075615
1757088403750198800,6.80519873046875,0.007699999958276749,0.0006874999962747097,0.004537499975413084
1757088403759751700,6.814751708984375,0.011412499472498894,0.0006874999962747097,0.0009624999947845936
1757088403769304600,6.8243046875,0.013887500390410423,0.0031624999828636646,-0.0002749999985098839
1757088403778857700,6.833857666015625,0.013887500390410423,0.005499999970197678,-0.0015124999918043613
1757088403788411000,6.843410888671875,0.012649999931454659,0.010449999943375587,-0.0015124999918043613
1757088403797963800,6.8529638671875,0.008937500417232513,0.014162499457597733,-0.0015124999918043613
1757088403807517000,6.862516845703125,0.004124999977648258,0.018975000828504562,0.0009624999947845936
1757088403817069800,6.87206982421875,0.0016499999910593033,0.018975000828504562,-0.0015124999918043613
1757088403826623000,6.881623046875,-0.0008249999955296516,0.017737500369548798,-0.002749999985098839
1757088403836176000,6.89117578125,-0.0031624999828636646,0.015262499451637268,-0.005224999971687794
1757088403845729000,6.90072900390625,-0.0031624999828636646,0.014162499457597733,-0.007699999958276749
1757088403855282000,6.910281982421875,-0.0008249999955296516,0.009212499484419823,-0.010037500411272049
1757088403864835300,6.91983544921875,0.0028874999843537807,-0.0005499999970197678,-0.011274999938905239
1757088403874388200,6.92938818359375,0.0028874999843537807,0.0006874999962747097,-0.011274999938905239
1757088403883941000,6.938941162109375,0.0028874999843537807,0.0019249999895691872,-0.011274999938905239
1757088403893494300,6.948494384765625,0.0028874999843537807,0.0031624999828636646,-0.010037500411272049
1757088403903047200,6.958047119140625,0.0016499999910593033,0.005499999970197678,-0.005224999971687794
1757088403912600300,6.967600341796875,-0.0008249999955296516,0.006737499963492155,-0.002749999985098839
1757088403922153200,6.9771533203125,-0.002062499988824129,0.005499999970197678,-0.006462499964982271
1757088403931706000,6.9867060546875,-0.004399999976158142,0.0031624999828636646,-0.008799999952316284
1757088403941259300,6.99625927734375,-0.004399999976158142,0.0019249999895691872,-0.010037500411272049
1757088403950812400,7.0058125,-0.004399999976158142,-0.0005499999970197678,-0.011274999938905239
1757088403960365300,7.015365234375,-0.004399999976158142,0.0019249999895691872,-0.011274999938905239
1757088403969918500,7.02491845703125,-0.004399999976158142,0.0019249999895691872,-0.010037500411272049
1757088403979471400,7.034471435546875,-0.004399999976158142,0.0031624999828636646,-0.010037500411272049
1757088403989024300,7.044024169921875,-0.004399999976158142,0.0042624999769032,-0.010037500411272049
1757088403998577400,7.053577392578125,-0.004399999976158142,0.0042624999769032,-0.011274999938905239
1757088404008130300,7.06313037109375,-0.004399999976158142,0.0031624999828636646,-0.013749999925494194
1757088404017683500,7.072683349609375,-0.006874999962747097,0.0031624999828636646,-0.013749999925494194
1757088404027236600,7.082236572265625,-0.006874999962747097,0.0031624999828636646,-0.01251249946653843
1757088404036789500,7.09178955078125,-0.006874999962747097,0.0006874999962747097,-0.011274999938905239
1757088404046342700,7.1013427734375,-0.0056374999694526196,-0.0017874999903142452,-0.006462499964982271
1757088404055895600,7.1108955078125,-0.004399999976158142,-0.0005499999970197678,-0.003987499978393316
1757088404065448700,7.12044873046875,-0.004399999976158142,0.0006874999962747097,-0.002749999985098839
1757088404075001600,7.130001708984375,-0.002062499988824129,-0.0017874999903142452,-0.0002749999985098839
1757088404084554800,7.1395546875,-0.0008249999955296516,-0.0030249999836087227,-0.0002749999985098839
1757088404094107600,7.149107666015625,-0.0008249999955296516,-0.0030249999836087227,-0.0002749999985098839
1757088404103660500,7.15866064453125,0.0004124999977648258,-0.0030249999836087227,-0.0002749999985098839
1757088404113213700,7.168213623046875,0.0004124999977648258,-0.0017874999903142452,0.0009624999947845936
1757088404122766800,7.177766845703125,0.0016499999910593033,-0.0017874999903142452,-0.0002749999985098839
1757088404132320000,7.187320068359375,0.0028874999843537807,-0.0017874999903142452,0.0009624999947845936
1757088404141873000,7.196872802734375,0.005362499970942736,-0.0017874999903142452,-0.0015124999918043613
1757088404151425800,7.20642578125,0.006599999964237213,-0.0017874999903142452,-0.002749999985098839
1757088404160978700,7.215978759765625,0.012649999931454659,0.005499999970197678,-0.01746249943971634
1757088404170531800,7.22553173828125,0.008937500417232513,0.0042624999769032,-0.021037500351667404
1757088404180085000,7.2350849609375,0.005362499970942736,0.0042624999769032,-0.02227500081062317
1757088404189638000,7.244637939453125,0.007699999958276749,0.0006874999962747097,-0.01746249943971634
1757088404199191000,7.25419091796875,0.006599999964237213,-0.0017874999903142452,-0.01251249946653843
1757088404208744000,7.263743896484375,0.030937500298023224,-0.006599999964237213,-0.007699999958276749
1757088404218296800,7.273296875,0.02969999983906746,-0.0042624999769032,-0.008799999952316284
1757088404227850000,7.28285009765625,0.028599999845027924,-0.0017874999903142452,-0.016224998980760574
1757088404237403100,7.292403076171875,0.02736249938607216,-0.007837500423192978,-0.01979999989271164
1757088404246956000,7.3019560546875,0.01759999990463257,-0.0030249999836087227,-0.01979999989271164
1757088404256509200,7.31150927734375,0.012649999931454659,-0.0042624999769032,-0.014987500384449959
1757088404266062000,7.32106201171875,0.0028874999843537807,-0.006599999964237213,-0.006462499964982271
1757088404275615200,7.330615234375,-0.014162499457597733,-0.011549999937415123,0.007012499962002039
1757088404285168000,7.340168212890625,-0.027637500315904617,-0.031075000762939453,0.027775000780820847
1757088404294721300,7.34972119140625,-0.025162499397993088,-0.027499999850988388,0.027775000780820847
1757088404304274400,7.3592744140625,-0.027637500315904617,-0.02502499893307686,0.021724998950958252
1757088404313827300,7.368827392578125,0.05664999783039093,-0.020075000822544098,-0.028462499380111694
1757088404323380200,7.378380126953125,0.0004124999977648258,0.016499999910593033,-0.008799999952316284
1757088404332933000,7.38793310546875,-0.0056374999694526196,0.04702499881386757,-0.013749999925494194
1757088404342486000,7.397486083984375,0.010174999944865704,-0.027499999850988388,-0.013749999925494194
1757088404352039400,7.407039306640625,-0.016637500375509262,0.009212499484419823,0.0009624999947845936
1757088404361592300,7.41659228515625,-0.006874999962747097,-0.014024999924004078,0.004537499975413084
1757088404371145500,7.4261455078125,-0.008112499490380287,-0.028599999845027924,-0.0015124999918043613
1757088404380698400,7.435698486328125,-0.011824999935925007,-0.020075000822544098,-0.006462499964982271
1757088404390251300,7.445251220703125,-0.011824999935925007,-0.015262499451637268,-0.003987499978393316
1757088404399804400,7.454804443359375,-0.008112499490380287,-0.010312499478459358,0.0009624999947845936
1757088404409357600,7.464357666015625,-0.004399999976158142,0.0006874999962747097,0.004537499975413084
1757088404418910500,7.473910400390625,-0.006874999962747097,0.006737499963492155,0.009487500414252281
1757088404428463600,7.483463623046875,-0.008112499490380287,0.005499999970197678,0.008249999955296516
1757088404438016500,7.4930166015625,-0.016637500375509262,0.0019249999895691872,0.007012499962002039
1757088404447569700,7.502569580078125,-0.016637500375509262,-0.0017874999903142452,-0.0002749999985098839
1757088404457122800,7.512122802734375,-0.010587500408291817,-0.0042624999769032,-0.003987499978393316
1757088404466675700,7.52167578125,-0.0031624999828636646,0.0019249999895691872,-0.008799999952316284
1757088404476228600,7.531228515625,-0.002062499988824129,0.007974999956786633,-0.014987500384449959
1757088404485781800,7.54078173828125,0.005362499970942736,-0.007837500423192978,-0.01251249946653843
1757088404495334700,7.550334716796875,0.008937500417232513,-0.0030249999836087227,-0.002749999985098839
1757088404504887800,7.5598876953125,0.006599999964237213,0.006737499963492155,0.004537499975413084
1757088404514441000,7.56944091796875,0.012649999931454659,0.015262499451637268,-0.0002749999985098839
1757088404523993900,7.578993896484375,0.012649999931454659,0.011687500402331352,-0.008799999952316284
1757088404533546800,7.588546630859375,0.015124999918043613,0.009212499484419823,-0.014987500384449959
1757088404543099600,7.598099609375,0.013887500390410423,0.006737499963492155,-0.01746249943971634
1757088404552652800,7.60765283203125,0.010174999944865704,0.006737499963492155,-0.016224998980760574
1757088404562206000,7.6172060546875,0.011412499472498894,0.0019249999895691872,-0.013749999925494194
1757088404571758800,7.6267587890625,0.018699999898672104,-0.007837500423192978,-0.018699999898672104
1757088404581312000,7.63631201171875,0.030937500298023224,-0.021312499418854713,-0.023512499406933784
1757088404590865000,7.645864990234375,0.03217500075697899,-0.021312499418854713,-0.02474999986588955
1757088404600417800,7.655417724609375,0.02736249938607216,-0.021312499418854713,-0.01979999989271164
1757088404609971000,7.664970947265625,0.021175000816583633,-0.014024999924004078,-0.011274999938905239
1757088404619524000,7.674524169921875,0.013887500390410423,-0.007837500423192978,-0.005224999971687794
1757088404629077000,7.684076904296875,0.0016499999910593033,-0.005499999970197678,0.0009624999947845936
1757088404638630100,7.693630126953125,-0.011824999935925007,-0.006599999964237213,0.004537499975413084
1757088404648183000,7.70318310546875,-0.011824999935925007,-0.005499999970197678,0.0009624999947845936
1757088404657736200,7.712736083984375,-0.0056374999694526196,-0.02983750030398369,-0.003987499978393316
1757088404667289000,7.7222890625,0.0004124999977648258,-0.021312499418854713,-0.010037500411272049
1757088404676842200,7.73184228515625,0.0016499999910593033,-0.016499999910593033,-0.016224998980760574
1757088404686395100,7.74139501953125,-0.006874999962747097,-0.01759999990463257,-0.005224999971687794
1757088404695948300,7.7509482421875,-0.015399999916553497,-0.014024999924004078,0.011962499469518661
1757088404705501200,7.760501220703125,-0.020349999889731407,-0.0042624999769032,0.020487500354647636
1757088404715054000,7.77005419921875,-0.024062499403953552,-0.0017874999903142452,0.01924999989569187
1757088404724607200,7.779607177734375,-0.028875000774860382,-0.007837500423192978,0.020487500354647636
1757088404734160100,7.78916015625,-0.027637500315904617,-0.021312499418854713,0.026537500321865082
1757088404743713300,7.79871337890625,-0.025162499397993088,-0.028599999845027924,0.0387750007212162
1757088404753266400,7.808266357421875,-0.024062499403953552,-0.022549999877810478,0.04606249928474426
1757088404762819300,7.8178193359375,-0.021587500348687172,-0.006599999964237213,0.04606249928474426
1757088404772372200,7.827372314453125,-0.017875000834465027,0.0031624999828636646,0.0424874983727932
1757088404781925400,7.83692529296875,-0.013062499463558197,0.005499999970197678,0.03396249935030937
1757088404791478500,7.846478515625,-0.0056374999694526196,0.011687500402331352,0.022962499409914017
1757088404801031400,7.856031494140625,-0.004399999976158142,0.014162499457597733,0.015537500381469727
1757088404810584300,7.865584228515625,-0.015399999916553497,0.021449999883770943,0.018012499436736107
1757088404820137500,7.875137451171875,-0.0448249988257885,0.036024998873472214,0.03629999980330467
1757088404829690600,7.884690673828125,-0.06435000151395798,0.055687498301267624,0.07782500237226486
1757088404839243500,7.894243408203125,-0.07411249727010727,0.04592499881982803,0.09501250088214874
1757088404848796700,7.903796630859375,-0.10711249709129333,0.06173750013113022,0.09377499669790268
1757088404858349600,7.913349609375,-0.13516250252723694,0.08744999766349792,0.08882500231266022
1757088404867902500,7.92290234375,-0.17544999718666077,0.11055000126361847,0.08648750185966492
1757088404877455600,7.93245556640625,-0.1999250054359436,0.08978749811649323,0.08401250094175339
1757088404887008800,7.9420087890625,-0.17544999718666077,0.08002500236034393,0.07782500237226486
1757088404896561700,7.951561767578125,-0.16568750143051147,0.06421250104904175,0.06572499871253967
1757088404906114800,7.96111474609375,-0.20487499237060547,0.09968750178813934,0.06201250106096268
1757088404915667700,7.970667724609375,-0.2829749882221222,0.15702499449253082,0.06929999589920044
1757088404925220600,7.980220703125,-0.38926249742507935,0.19126249849796295,0.08030000329017639
1757088404934773800,7.989773681640625,-0.4992625117301941,0.18507499992847443,0.09501250088214874
1757088404944327000,7.999326904296875,-0.5590749979019165,0.13378749787807465,0.07906249910593033
1757088404953879800,8.0088798828125,-0.6043124794960022,0.08249999582767487,0.04496249929070473
1757088404963432700,8.0184326171875,-0.6813125014305115,0.1069749966263771,0.01677500084042549
1757088404972985900,8.02798583984375,-0.7875999808311462,0.16431249678134918,0.018012499436736107
1757088404982539000,8.0375390625,-0.783887505531311,0.16431249678134918,0.01677500084042549
1757088404992092000,8.047091796875,-0.7716500163078308,0.18754999339580536,0.010724999941885471
1757088405001645000,8.05664501953125,-0.8095999956130981,0.18150000274181366,-0.008799999952316284
1757088405011198000,8.066197998046874,-0.8633624911308289,0.1839749962091446,-0.008799999952316284
1757088405020750800,8.075750732421875,-0.9158874750137329,0.17778749763965607,-0.013749999925494194
1757088405030304000,8.085303955078125,-0.910937488079071,0.12044999748468399,-0.03451250120997429
1757088405039857000,8.09485693359375,-0.8278874754905701,0.15578749775886536,-0.030799999833106995
1757088405049410000,8.10441015625,-0.7386500239372253,0.12044999748468399,-0.033275000751018524
1757088405058963200,8.113963134765624,-0.7106000185012817,0.15097500383853912,-0.007699999958276749
1757088405068516000,8.12351611328125,-0.7728874683380127,0.27431249618530273,0.0387750007212162
1757088405078069000,8.133069091796875,-0.8938875198364258,0.3988874852657318,0.06929999589920044
1757088405087622000,8.142621826171874,-0.9231749773025513,0.45141249895095825,0.05224999785423279
1757088405097175000,8.152175048828125,-0.8266500234603882,0.3207874894142151,0.0032999999821186066
1757088405106728200,8.161728271484375,-0.6628875136375427,0.09968750178813934,-0.04179999977350235
1757088405116281000,8.171281005859376,-0.49678748846054077,0.006737499963492155,-0.05403750017285347
1757088405125834200,8.180834228515625,-0.3244999945163727,0.07273750007152557,-0.02722499892115593
1757088405135387100,8.19038720703125,-0.2194499969482422,0.1985500007867813,0.030249999836087227
1757088405144940300,8.199940185546875,-0.18521249294281006,0.2377374917268753,0.08758749812841415
1757088405154493200,8.2094931640625,-0.22673749923706055,0.33660000562667847,0.08401250094175339
1757088405164046000,8.219046142578126,-0.05335000157356262,1.2529000043869019,-0.3081375062465668
1757088405173599200,8.22859912109375,0.035887498408555984,1.7000499963760376,-0.34732499718666077
1757088405183152000,8.238152099609374,-0.022824998944997787,1.0793750286102295,-0.1358499974012375
1757088405192705300,8.247705322265626,0.005362499970942736,0.4978874921798706,0.024062499403953552
1757088405202258200,8.257258056640625,0.09693749994039536,0.16321249306201935,0.11082500219345093
1757088405211811300,8.266811279296874,0.2227499932050705,0.24131250381469727,0.17311249673366547
1757088405221364200,8.2763642578125,0.34622499346733093,0.3097875118255615,0.25753748416900635
1757088405230917000,8.285917236328125,0.1311749964952469,-0.13007499277591705,0.38692501187324524
1757088405240470300,8.29547021484375,-0.26221248507499695,-0.4269374907016754,0.4456374943256378
1757088405250023400,8.3050234375,-0.4992625117301941,-0.3499374985694885,0.267300009727478
1757088405259576300,8.314576416015624,-0.5883625149726868,-0.15331250429153442,0.020487500354647636
1757088405269129200,8.324129150390625,-0.5444999933242798,0.031212499365210533,-0.1555124968290329
1757088405278682000,8.33368212890625,-0.4492124915122986,0.009212499484419823,-0.2433750033378601
1757088405288235300,8.3432353515625,-0.30373749136924744,-0.18507499992847443,-0.36684998869895935
1757088405297788200,8.3527880859375,-0.1681624948978424,-0.22907499969005585,-0.4351874887943268
1757088405307341300,8.36234130859375,-0.03616249933838844,-0.19112500548362732,-0.3778499960899353
1757088405316894500,8.37189453125,0.13598750531673431,0.2157374918460846,-0.5634750127792358
1757088405326447400,8.381447265625,0.17874999344348907,0.3550249934196472,-0.6356624960899353
1757088405336000300,8.391000244140624,0.07369999587535858,-0.7983250021934509,-0.20432500541210175
1757088405345553400,8.400553466796875,0.055412501096725464,-1.8673875331878662,-0.007699999958276749
1757088405355106300,8.410106201171875,0.11041250079870224,-1.7793874740600586,0.03396249935030937
1757088405364659500,8.419659423828126,0.06888750195503235,-0.9143750071525574,0.029012499377131462
1757088405374212600,8.429212646484375,0.07136250287294388,-0.19112500548362732,-0.038224998861551285
1757088405383765500,8.438765625,0.06393750011920929,0.2120250016450882,-0.028462499380111694
1757088405393318400,8.448318359375,0.07369999587535858,0.2475000023841858,0.05953750014305115
1757088405402871300,8.457871337890625,0.12870000302791595,0.19126249849796295,0.1340624988079071
1757088405412424700,8.4674248046875,0.12622499465942383,0.1742125004529953,0.15358750522136688
1757088405421977600,8.4769775390625,0.12388750165700912,0.10078749805688858,0.09624999761581421
1757088405431530500,8.486530517578124,0.09322500228881836,0.09473749995231628,0.0705375000834465
1757088405441083600,8.496083740234376,0.07246249914169312,0.09844999760389328,0.06806249916553497
1757088405450636500,8.505636474609375,0.17270000278949738,0.027499999850988388,0.05472499877214432
1757088405460189400,8.515189453125,0.15674999356269836,0.10821250081062317,0.09624999761581421
1757088405469742600,8.52474267578125,0.11893749982118607,0.09597499668598175,0.09748750180006027
1757088405479295500,8.53429541015625,0.12622499465942383,0.10821250081062317,0.07548750191926956
1757088405488848600,8.5438486328125,0.12017499655485153,0.14231249690055847,0.06572499871253967
1757088405498401500,8.553401611328125,0.11769999563694,0.13378749787807465,0.07548750191926956
1757088405507954700,8.56295458984375,0.08112499862909317,-0.022549999877810478,0.03506249934434891
1757088405517507600,8.572507568359375,-0.008112499490380287,-0.10202500224113464,-0.011274999938905239
1757088405527060700,8.582060791015625,-0.07768750190734863,-0.16431249678134918,-0.07851249724626541
1757088405536614000,8.59161376953125,-0.08511249721050262,-0.12155000120401382,-0.09803749620914459
1757088405546166800,8.601166748046875,-0.09968750178813934,-0.09336250275373459,-0.07479999959468842
1757088405555719700,8.6107197265625,-0.1106875017285347,-0.058024998754262924,-0.02474999986588955
1757088405565272600,8.6202724609375,-0.10587500035762787,-0.0775500014424324,0.0009624999947845936
1757088405574825700,8.62982568359375,-0.11935000121593475,-0.11659999936819077,-0.002749999985098839
1757088405584379000,8.63937890625,-0.18039999902248383,-0.20336249470710754,-0.06132499873638153
1757088405593931800,8.648931884765625,-0.254925012588501,-0.40369999408721924,-0.1555124968290329
1757088405603485000,8.65848486328125,-0.3147374987602234,-0.48922500014305115,-0.19085000455379486
1757088405613037800,8.668037841796876,-0.40878748893737793,-0.4965125024318695,-0.1615625023841858
1757088405622590700,8.6775908203125,-0.5823125243186951,-0.5002250075340271,-0.07975000143051147
1757088405632144000,8.687143798828124,-0.6653624773025513,-0.4012250006198883,0.020487500354647636
1757088405641696800,8.69669677734375,-0.6715499758720398,-0.21931250393390656,0.11948750168085098
1757088405651249700,8.706249755859375,-0.722837507724762,0.08373750001192093,0.20006249845027924
1757088405660802800,8.715802734375,-0.8657000064849854,0.342787504196167,0.22453749179840088
1757088405670356000,8.72535595703125,-1.0562750101089478,0.6017000079154968,0.20253749191761017
1757088405679908900,8.734908935546875,-1.1540374755859375,0.8082249760627747,0.18177500367164612
1757088405689462000,8.7444619140625,-1.0905125141143799,0.7117000222206116,0.20006249845027924
1757088405699015200,8.75401513671875,-1.0722249746322632,0.5003625154495239,0.2733500003814697
1757088405708568000,8.763568115234374,-1.1527999639511108,0.44907498359680176,0.3515875041484833
1757088405718121000,8.773120849609375,-1.2053250074386597,0.5455999970436096,0.4419249892234802
1757088405727673900,8.782673828125,-1.1735625267028809,0.6481750011444092,0.477400004863739
1757088405737227000,8.79222705078125,-1.1565124988555908,0.7727500200271606,0.42844998836517334
1757088405746780000,8.80177978515625,-1.202987551689148,0.7324625253677368,0.35282498598098755
1757088405756333000,8.8113330078125,-1.3055624961853027,0.6408874988555908,0.3258749842643738
1757088405765886200,8.82088623046875,-1.2885124683380127,0.6909375190734863,0.3161124885082245
1757088405775439000,8.830439208984375,-1.2945624589920044,0.8020374774932861,0.26606249809265137
1757088405784992000,8.839991943359376,-1.178512454032898,0.8729875087738037,0.19634999334812164
1757088405794545200,8.849545166015625,-0.8327000141143799,0.9425625205039978,0.1915374994277954
1757088405804098000,8.85909814453125,-0.4809750020503998,1.0060875415802002,0.30387499928474426
1757088405813651000,8.86865087890625,-0.2769249975681305,1.2076624631881714,0.30387499928474426
1757088405823204000,8.8782041015625,-0.15839999914169312,1.5252875089645386,0.29906249046325684
1757088405832757200,8.88775732421875,-0.06668750196695328,1.8771499395370483,0.30387499928474426
1757088405842310100,8.89731005859375,0.005362499970942736,2.2376749515533447,0.3063499927520752
1757088405851863000,8.906863037109375,-0.020349999889731407,2.554062604904175,0.3320625126361847
1757088405861416200,8.916416259765626,-0.19744999706745148,2.8081624507904053,0.346637487411499
1757088405870969000,8.925968994140625,-0.3452624976634979,2.753162384033203,0.40287500619888306
1757088405880522000,8.93552197265625,-0.4955500066280365,2.696924924850464,0.4749250113964081
1757088405890075100,8.9450751953125,-0.4283125102519989,2.351249933242798,0.6202625036239624
1757088405899628300,8.954628173828125,-0.34773749113082886,1.7685250043869019,0.8500249981880188
1757088405909181200,8.96418115234375,-0.3489750027656555,1.7598625421524048,1.0443124771118164
1757088405918734000,8.973734130859375,-0.23416249454021454,1.5192375183105469,1.2592250108718872
1757088405928287000,8.983286865234374,-0.24268749356269836,1.5045249462127686,1.3435125350952148
1757088405937840000,8.992840087890626,-0.37578749656677246,1.990862488746643,1.1761749982833862
1757088405947393300,9.002393310546875,-0.5347374677658081,2.358537435531616,1.045412540435791
1757088405956946200,9.0119462890625,-0.6115999817848206,2.0787250995635986,0.9758374691009521
1757088405966499300,9.021499267578125,-0.6335999965667725,1.8063374757766724,0.9025499820709229
1757088405976052200,9.03105224609375,-0.46626248955726624,1.4031875133514404,1.1713625192642212
1757088405985605400,9.04060546875,-0.24392500519752502,1.166137456893921,1.4205124378204346
1757088405995158300,9.050158203125,-0.13887499272823334,1.3384250402450562,1.6380374431610107
1757088406004711400,9.05971142578125,-0.16568750143051147,1.2150875329971313,1.7381374835968018
1757088406014264600,9.0692646484375,-0.4492124915122986,0.6408874988555908,1.7296124696731567
1757088406023817200,9.078817138671875,-0.33797499537467957,0.5894625186920166,1.4377000331878662
1757088406033370400,9.088370361328124,-0.24268749356269836,0.8204625248908997,1.1493624448776245
1757088406042923300,9.09792333984375,-0.19497500360012054,1.1026124954223633,1.18236243724823
1757088406052476400,9.107476318359375,-0.1681624948978424,1.36537504196167,1.308174967765808
1757088406062029300,9.117029296875,0.17874999344348907,1.5290000438690186,1.4987499713897705
1757088406071582500,9.12658251953125,0.34498751163482666,2.220487594604492,1.3899874687194824
1757088406081135400,9.13613525390625,0.43408748507499695,2.417249917984009,1.2336499691009521
1757088406090688300,9.145688232421875,0.4927999973297119,2.4502499103546143,1.3631750345230103
1757088406100241400,9.155241455078125,0.6784250140190125,2.4831125736236572,1.6013250350952148
1757088406109794300,9.164794189453126,0.7908999919891357,2.196012496948242,1.7711374759674072
1757088406119347500,9.174347412109375,0.6186124682426453,2.0739123821258545,1.9056124687194824
1757088406128900400,9.183900390625,0.5318499803543091,1.9346250295639038,2.109524965286255
1757088406138453500,9.19345361328125,0.4745124876499176,1.952912449836731,1.947137475013733
1757088406148006400,9.20300634765625,0.3815625011920929,2.1411499977111816,1.5415124893188477
1757088406157559600,9.2125595703125,-0.0765874981880188,2.5662999153137207,1.4192750453948975
1757088406167112400,9.222112548828125,-0.19139999151229858,2.3317248821258545,1.2238874435424805
1757088406176665600,9.23166552734375,0.06641250103712082,2.3072500228881836,1.2531750202178955
1757088406186218500,9.241218505859376,-0.164450004696846,2.1447250843048096,1.685612440109253
1757088406195771400,9.250771484375,-0.3232625126838684,1.2931874990463257,1.8078500032424927
1757088406205324500,9.260324462890624,-0.3844499886035919,0.810699999332428,1.7051374912261963
1757088406214877700,9.269877685546875,-0.2536875009536743,0.7997000217437744,1.5585625171661377
1757088406224430800,9.279430908203125,-0.08139999955892563,1.0500874519348145,1.3717000484466553
1757088406233983500,9.2889833984375,0.12870000302791595,1.4569499492645264,1.0576499700546265
1757088406243536600,9.29853662109375,0.5636125206947327,2.122725009918213,0.6619250178337097
1757088406253089500,9.308089599609374,0.5135625004768372,3.1257874965667725,0.5299249887466431
1757088406262642400,9.317642333984375,0.2765125036239624,3.064737558364868,0.5579749941825867
1757088406272195600,9.327195556640625,0.36822500824928284,2.315774917602539,0.4113999903202057
1757088406281748500,9.33674853515625,0.33274999260902405,1.8686250448226929,0.504212498664856
1757088406291301600,9.346301513671875,0.25946250557899475,1.724524974822998,0.7254499793052673
1757088406300854500,9.3558544921875,0.14093749225139618,1.8686250448226929,0.7975000143051147
1757088406310407700,9.36540771484375,0.1116499975323677,2.200962543487549,0.735212504863739
1757088406319960600,9.374960693359375,0.09693749994039536,2.6346375942230225,0.6802124977111816
1757088406329513500,9.384513427734374,0.03217500075697899,2.913212537765503,0.5885000228881836
1757088406339066600,9.394066650390625,-0.10092499852180481,3.0537374019622803,0.29906249046325684
1757088406348619500,9.40361962890625,-0.1742125004529953,2.954737424850464,0.12925000488758087
1757088406358172700,9.413172607421876,-0.23045000433921814,2.8276875019073486,0.19634999334812164
1757088406367725600,9.4227255859375,-0.3562625050544739,2.547874927520752,0.2648249864578247
1757088406377278700,9.43227880859375,-0.6213625073432922,2.208250045776367,0.06077500060200691
1757088406386831600,9.44183154296875,-0.8401250243186951,1.8881499767303467,-0.31913748383522034
1757088406396384800,9.451384765625,-0.8376500010490417,1.8979125022888184,-0.5451874732971191
1757088406405937700,9.460937744140624,-0.9476500153541565,2.1997249126434326,-0.7895249724388123
1757088406415490800,9.47049072265625,-1.0172250270843506,2.4733500480651855,-1.1035749912261963
1757088406425043700,9.480043701171875,-1.0832250118255615,2.7861623764038086,-1.3734874725341797
1757088406434596600,9.4895966796875,-1.1724624633789062,2.9596874713897705,-1.6373499631881714
1757088406444149800,9.499149658203125,-1.3287999629974365,3.129499912261963,-1.8695875406265259
1757088406453702700,9.50870263671875,-1.5426124334335327,3.326124906539917,-2.089449882507324
1757088406463255800,9.518255859375,-1.8125250339508057,3.4971749782562256,-2.3105499744415283
1757088406472809000,9.52780908203125,-2.1106250286102295,3.680462598800659,-2.550075054168701
1757088406482361600,9.537361572265626,-2.418487548828125,3.696274995803833,-2.6049375534057617
1757088406491914800,9.546914794921875,-2.634774923324585,3.524125099182129,-2.2702624797821045
1757088406501467600,9.556467529296874,-2.797300100326538,3.302887439727783,-1.7315374612808228
1757088406511020800,9.566020751953126,-2.9280624389648438,3.063499927520752,-1.0741499662399292
1757088406520573700,9.57557373046875,-3.0256874561309814,2.8754000663757324,-0.35708749294281006
1757088406530126800,9.585126953125,-3.166212558746338,2.836212396621704,0.18053749203681946
1757088406539679700,9.5946796875,-3.3555500507354736,2.804450035095215,0.38458749651908875
1757088406549233000,9.60423291015625,-3.5315499305725098,2.888737440109253,0.22577500343322754
1757088406558785800,9.613785888671876,-3.673175096511841,3.037787437438965,-0.0625625029206276
1757088406568338700,9.623338623046875,-3.838175058364868,3.2590250968933105,-0.20679999887943268
1757088406577891800,9.632891845703124,-3.956700086593628,3.410412549972534,-0.17256249487400055
1757088406587445000,9.642445068359375,-4.0202250480651855,3.482599973678589,-0.1358499974012375
1757088406596998000,9.651997802734375,-4.018987655639648,3.459362506866455,-0.19456249475479126
1757088406606550800,9.66155078125,-4.038512706756592,3.386075019836426,-0.040562499314546585
1757088406616104000,9.67110400390625,-3.9554624557495117,3.295599937438965,0.31735000014305115
1757088406625656800,9.68065673828125,-3.8528873920440674,3.255312442779541,0.6289250254631042
1757088406635209700,9.690209716796875,-3.6524124145507812,2.8754000663757324,0.9343125224113464
1757088406644763000,9.699762939453125,-3.4472625255584717,2.7911124229431152,1.0748374462127686
1757088406654316000,9.70931591796875,-3.142975091934204,2.705587387084961,1.1383625268936157
1757088406663869000,9.718868896484375,-2.768012523651123,2.693350076675415,1.0918874740600586
1757088406673421800,9.728421875,-2.3403875827789307,2.612637519836426,0.9795500040054321
1757088406682974700,9.737974609375,-1.9322874546051025,2.628587484359741,0.7864999771118164
1757088406692527900,9.74752783203125,-1.5731375217437744,2.7263500690460205,0.5665000081062317
1757088406702081000,9.7570810546875,-1.3190374374389648,3.105025053024292,0.2965874969959259
1757088406711634000,9.766634033203125,-1.033174991607666,3.094024896621704,0.1060125008225441
1757088406721186800,9.776186767578125,-0.7790749669075012,3.0122125148773193,-0.07479999959468842
1757088406730740000,9.785739990234376,-0.5455999970436096,2.9474499225616455,-0.2727999985218048
1757088406740292900,9.79529296875,-0.30373749136924744,2.885162591934204,-0.4816625118255615
1757088406749846000,9.804845947265624,-0.05939999967813492,2.8252124786376953,-0.7125250101089478
1757088406759399200,9.814399169921876,0.2069374918937683,2.765399932861328,-0.9788625240325928
1757088406768952000,9.8239521484375,0.5282750129699707,2.7666375637054443,-1.289199948310852
1757088406778505000,9.8335048828125,0.9227625131607056,2.7458748817443848,-1.6227749586105347
1757088406788057900,9.843057861328125,0.7261375188827515,4.299900054931641,-1.3331999778747559
1757088406797611000,9.852611083984375,-0.5700749754905701,7.244187355041504,-0.27403751015663147
1757088406807164200,9.8621640625,-1.6121875047683716,8.988787651062012,0.5922124981880188
1757088406816717000,9.871717041015625,-2.6140124797821045,10.98748779296875,1.4852750301361084
1757088406826270200,9.881270263671874,-3.0159249305725098,12.349699974060059,2.201237440109253
1757088406835823000,9.890822998046875,-3.0208749771118164,11.00577449798584,2.889012575149536
1757088406845376000,9.9003759765625,-2.469912528991699,5.533824920654297,2.973299980163574
1757088406854929200,9.90992919921875,-1.7844749689102173,1.178375005722046,2.2415249347686768
1757088406864481800,9.919481689453125,-1.2005125284194946,-1.304187536239624,1.627037525177002
1757088406874035000,9.929034912109374,-0.8766999840736389,-1.112375020980835,1.6795624494552612
1757088406883588000,9.938588134765626,-0.7423624992370605,-0.5589374899864197,1.7467999458312988
1757088406893141000,9.94814111328125,-0.6848874688148499,-0.31088748574256897,1.7503750324249268
1757088406902694100,9.957694091796874,-0.5700749754905701,-0.5357000231742859,1.4425125122070312
1757088406912247000,9.9672470703125,-0.4002625048160553,-0.854562520980835,0.8940249681472778
1757088406921800200,9.97680029296875,-0.36602500081062317,-0.8948500156402588,0.3003000020980835
1757088406931353000,9.98635302734375,-0.46626248955726624,-0.5172749757766724,-0.2250874936580658
1757088406940906200,9.99590625,-0.5005000233650208,-0.014024999924004078,-0.6710000038146973
1757088406950459100,10.005459228515624,-0.4675000011920929,0.4441249966621399,-1.047337532043457
1757088406960012000,10.015011962890625,-0.41126251220703125,1.0073250532150269,-1.393012523651123
1757088406969565200,10.024565185546875,-0.4137375056743622,1.6255249977111816,-1.52982497215271
1757088406979118000,10.0341181640625,-0.390500009059906,1.7440500259399414,-1.4859625101089478
1757088406988671200,10.043671142578125,-0.33797499537467957,1.440999984741211,-1.3772000074386597
1757088406998224100,10.05322412109375,-0.27816250920295715,0.9719874858856201,-1.2281500101089478
1757088407007777300,10.06277734375,-0.22068749368190765,0.5736500024795532,-0.9275749921798706
1757088407017330200,10.072330078125,-0.14011250436306,0.20707499980926514,-0.5952374935150146
1757088407026883000,10.081883056640624,-0.07163749635219574,-0.05926249921321869,-0.27761250734329224
1757088407036436000,10.09143603515625,-0.0471624992787838,-0.17407499253749847,-0.033275000751018524
1757088407045989000,10.100989013671875,-0.026399999856948853,-0.17159999907016754,0.12058749794960022
1757088407065095200,10.12009521484375,0.04936249926686287,0.07273750007152557,0.17682500183582306
1757088407074648000,10.12964794921875,0.06888750195503235,0.2400749921798706,0.11948750168085098
1757088407084201200,10.139201171875,0.07741250097751617,0.3867875039577484,0.08648750185966492
1757088407093754000,10.148754150390625,0.06146249920129776,0.45883750915527344,0.10477499663829803
1757088407103307300,10.158307373046876,0.008937500417232513,0.4575999975204468,0.16458749771118164
1757088407112860200,10.167860107421875,-0.0448249988257885,0.38554999232292175,0.2488749921321869
1757088407122413000,10.1774130859375,-0.0789249986410141,0.27431249618530273,0.38940000534057617
1757088407131966200,10.18696630859375,-0.12787500023841858,-0.015262499451637268,0.5226374864578247
1757088407141519000,10.19651904296875,-0.15963749587535858,-0.2424124926328659,0.49445000290870667
1757088407151072000,10.206072021484376,-0.1326874941587448,-0.23388749361038208,0.38087499141693115
1757088407160625200,10.215625244140625,-0.06792499870061874,-0.13612499833106995,0.13901250064373016
1757088407170178300,10.22517822265625,-0.06668750196695328,0.022687500342726707,-0.09556250274181366
1757088407179731200,10.234731201171876,-0.09611249715089798,0.14973749220371246,-0.23485000431537628
